"Time (s)";"Acceleration x (m/s^2)";"Acceleration y (m/s^2)";"Acceleration z (m/s^2)";"Absolute acceleration (m/s^2)"
1.732205600E-2;-4.251447678E0;8.659625053E0;1.411167145E0;9.749631077E0
1.949238500E-2;-4.241876125E0;8.669196129E0;1.411167145E0;9.753966747E0
2.166672200E-2;-4.241876125E0;8.669196129E0;1.406381488E0;9.753275525E0
2.383875300E-2;-4.241876125E0;8.659625053E0;1.411167145E0;9.745461089E0
2.599892600E-2;-4.251447678E0;8.664410591E0;1.411167145E0;9.753881840E0
2.818408600E-2;-4.241876125E0;8.669196129E0;1.425524116E0;9.756054202E0
3.034469000E-2;-4.232305050E0;8.650053978E0;1.396810174E0;9.730720349E0
3.251994300E-2;-4.232305050E0;8.664410591E0;1.430309772E0;9.748343601E0
3.468817500E-2;-4.227519512E0;8.669196129E0;1.415952802E0;9.748425775E0
3.686089400E-2;-4.213162422E0;8.669196129E0;1.435095429E0;9.745008877E0
3.903362400E-2;-4.213162422E0;8.654839516E0;1.435095429E0;9.732239389E0
4.121437000E-2;-4.203591347E0;8.673981667E0;1.439880967E0;9.745839900E0
4.338526900E-2;-4.203591347E0;8.678768158E0;1.415952802E0;9.746595266E0
4.555387800E-2;-4.203591347E0;8.683553696E0;1.435095429E0;9.753654899E0
4.771493000E-2;-4.203591347E0;8.688339233E0;1.430309772E0;9.757212967E0
4.989686600E-2;-4.203591347E0;8.707481384E0;1.415952802E0;9.772171438E0
5.207186300E-2;-4.208376884E0;8.707481384E0;1.449452281E0;9.779140043E0
5.425547700E-2;-4.232305050E0;8.721240044E0;1.459023595E0;9.803121125E0
5.640660100E-2;-4.208376884E0;8.716454506E0;1.444666624E0;9.786423086E0
5.856967700E-2;-4.222733974E0;8.692526817E0;1.444666624E0;9.771313440E0
6.074761400E-2;-4.203591347E0;8.712266922E0;1.435095429E0;9.779226658E0
6.292201200E-2;-4.222733974E0;8.702097893E0;1.439880967E0;9.779123026E0
6.509567800E-2;-4.227519512E0;8.721240044E0;1.439880967E0;9.798224652E0
6.726446100E-2;-4.232305050E0;8.726025581E0;1.439880967E0;9.804549234E0
6.943726100E-2;-4.227519512E0;8.726624489E0;1.439282775E0;9.802929720E0
7.160830200E-2;-4.241876125E0;8.726025581E0;1.463211060E0;9.812136470E0
7.377590500E-2;-4.246662140E0;8.735597610E0;1.458425403E0;9.822006394E0
7.594810500E-2;-4.256233215E0;8.735597610E0;1.463211060E0;9.826859793E0
7.811907500E-2;-4.251447678E0;8.735597610E0;1.463211060E0;9.824788017E0
8.029060400E-2;-4.256233215E0;8.730812073E0;1.458425403E0;9.821894180E0
8.246119800E-2;-4.241876125E0;8.730812073E0;1.439282775E0;9.812855212E0
8.463080400E-2;-4.232305050E0;8.731410027E0;1.424925923E0;9.807157640E0
8.680372700E-2;-4.227519512E0;8.721838951E0;1.434497118E0;9.797968049E0
8.897541900E-2;-4.227519512E0;8.721838951E0;1.425524116E0;9.796658355E0
9.114571700E-2;-4.203591347E0;8.721838951E0;1.430309772E0;9.787054764E0
9.331694100E-2;-4.203591347E0;8.717052460E0;1.444666624E0;9.784898847E0
9.548900900E-2;-4.213162422E0;8.707481384E0;1.420738459E0;9.776986623E0
9.765823000E-2;-4.208376884E0;8.717052460E0;1.430309772E0;9.784846735E0
9.982913800E-2;-4.213162422E0;8.731410027E0;1.429711580E0;9.799608862E0
1.020001590E-1;-4.222733974E0;8.731410027E0;1.415354609E0;9.801644349E0
1.041735080E-1;-4.237090588E0;8.721838951E0;1.411167145E0;9.798714408E0
1.063440410E-1;-4.237090588E0;8.726624489E0;1.410568953E0;9.802888166E0
1.085133420E-1;-4.227519512E0;8.688339233E0;1.411167145E0;9.764760753E0
1.106838750E-1;-4.256233215E0;8.707481384E0;1.396810174E0;9.792182183E0
1.128513550E-1;-4.246662140E0;8.717052460E0;1.387238979E0;9.795181208E0
1.150121210E-1;-4.246662140E0;8.688339233E0;1.396810174E0;9.771000800E0
1.171979120E-1;-4.241876125E0;8.707481384E0;1.377667665E0;9.783236342E0
1.193686690E-1;-4.237090588E0;8.693124771E0;1.377667665E0;9.768383855E0
1.215444800E-1;-4.251447678E0;8.678768158E0;1.339382529E0;9.756524466E0
1.237115040E-1;-4.270590305E0;8.697910309E0;1.320239902E0;9.779295409E0
1.258836840E-1;-4.251447678E0;8.736195564E0;1.301097274E0;9.802488174E0
1.280686610E-1;-4.227519512E0;8.731410027E0;1.310668588E0;9.789141659E0
1.302390100E-1;-4.222733974E0;8.707481384E0;1.305882931E0;9.765093164E0
1.324102950E-1;-4.232305050E0;8.717052460E0;1.305882931E0;9.777767631E0
1.345737160E-1;-4.261018753E0;8.712266922E0;1.315454245E0;9.787251688E0
1.367355000E-1;-4.270590305E0;8.707481384E0;1.315454245E0;9.787164732E0
1.389179350E-1;-4.275375843E0;8.697910309E0;1.310668588E0;9.780098900E0
1.410758950E-1;-4.299304008E0;8.688339233E0;1.334596872E0;9.785315652E0
1.432643510E-1;-4.294518471E0;8.683553696E0;1.325025558E0;9.777662625E0
1.454238760E-1;-4.308875561E0;8.673981667E0;1.320239902E0;9.774835034E0
1.475823840E-1;-4.294518471E0;8.693124771E0;1.315454245E0;9.784872357E0
1.497730170E-1;-4.289732933E0;8.664410591E0;1.301097274E0;9.755340775E0
1.519435910E-1;-4.280161381E0;8.678768158E0;1.320239902E0;9.766464641E0
1.541196160E-1;-4.284946918E0;8.664410591E0;1.315454245E0;9.755162780E0
1.562909620E-1;-4.289732933E0;8.688339233E0;1.310668588E0;9.777878063E0
1.584653190E-1;-4.294518471E0;8.669196129E0;1.291526079E0;9.760424685E0
1.606173880E-1;-4.284946918E0;8.678768158E0;1.286740422E0;9.764091752E0
1.628011250E-1;-4.294518471E0;8.673981667E0;1.272383451E0;9.762161979E0
1.649693880E-1;-4.299304008E0;8.654839516E0;1.272383451E0;9.747267394E0
1.671467250E-1;-4.294518471E0;8.650053978E0;1.262812138E0;9.739662069E0
1.693106350E-1;-4.299304008E0;8.659625053E0;1.272383451E0;9.751516839E0
1.714716670E-1;-4.308875561E0;8.650053978E0;1.267597795E0;9.746622317E0
1.736574080E-1;-4.299304008E0;8.659625053E0;1.281954765E0;9.752770327E0
1.758277860E-1;-4.289732933E0;8.654839516E0;1.272383451E0;9.743049591E0
1.780014320E-1;-4.294518471E0;8.659625053E0;1.272383451E0;9.749407911E0
1.801628090E-1;-4.304089546E0;8.659625053E0;1.286740422E0;9.755510945E0
1.823195380E-1;-4.294518471E0;8.673981667E0;1.301097274E0;9.765945984E0
1.845113400E-1;-4.294518471E0;8.673981667E0;1.281954765E0;9.763414099E0
1.866814450E-1;-4.308875561E0;8.664410591E0;1.281954765E0;9.761241085E0
1.888575830E-1;-4.304089546E0;8.669196129E0;1.277169108E0;9.762751112E0
1.910213500E-1;-4.294518471E0;8.669196129E0;1.262812138E0;9.756666691E0
1.931831040E-1;-4.299304008E0;8.669196129E0;1.272383451E0;9.760017220E0
1.953663910E-1;-4.304089546E0;8.678768158E0;1.272383451E0;9.770627575E0
1.975363850E-1;-4.318446636E0;8.697910309E0;1.258026481E0;9.792101701E0
1.997102140E-1;-4.323232174E0;8.664410591E0;1.305882931E0;9.770756242E0
2.018782230E-1;-4.332803726E0;8.673981667E0;1.320239902E0;9.785406454E0
2.040498340E-1;-4.332803726E0;8.688339233E0;1.296311617E0;9.794940049E0
2.062218200E-1;-4.318446636E0;8.693124771E0;1.296311617E0;9.792845523E0
2.083930240E-1;-4.313661098E0;8.697910309E0;1.305882931E0;9.796256736E0
2.105645640E-1;-4.313661098E0;8.692526817E0;1.325025558E0;9.794048564E0
2.127278740E-1;-4.308875561E0;8.706883430E0;1.348953724E0;9.807951051E0
2.148826270E-1;-4.304089546E0;8.716454506E0;1.334596872E0;9.812385785E0
2.170739020E-1;-4.323232174E0;8.726025581E0;1.348953724E0;9.831252973E0
2.192443840E-1;-4.323232174E0;8.735597610E0;1.320239902E0;9.835854586E0
2.214211930E-1;-4.308875561E0;8.740383148E0;1.343569875E0;9.836965293E0
2.235828550E-1;-4.318446636E0;8.726025581E0;1.363310695E0;9.831130141E0
2.257367340E-1;-4.328018188E0;8.721240044E0;1.353739381E0;9.829770071E0
2.279336440E-1;-4.323232174E0;8.745168686E0;1.357926846E0;9.849481057E0
2.301027320E-1;-4.313661098E0;8.749954224E0;1.348355532E0;9.848219820E0
2.322795910E-1;-4.318446636E0;8.735597610E0;1.320239902E0;9.833752100E0
2.344436830E-1;-4.299304008E0;8.730812073E0;1.334596872E0;9.823046534E0
2.366153350E-1;-4.294518471E0;8.735597610E0;1.358525038E0;9.828486393E0
2.387827650E-1;-4.299304008E0;8.716454506E0;1.344168067E0;9.811594259E0
2.409439790E-1;-4.289732933E0;8.740383148E0;1.329811215E0;9.826723975E0
2.431289060E-1;-4.299304008E0;8.740383148E0;1.344168067E0;9.832858197E0
2.452962840E-1;-4.299304008E0;8.740383148E0;1.348355532E0;9.833431506E0
2.474599710E-1;-4.299304008E0;8.749954224E0;1.357926846E0;9.843255518E0
2.496407370E-1;-4.299304008E0;8.754739761E0;1.348355532E0;9.846194488E0
2.518086450E-1;-4.289732933E0;8.759525299E0;1.324427366E0;9.843027987E0
2.539731750E-1;-4.308875561E0;8.759525299E0;1.338784218E0;9.853326101E0
2.561510210E-1;-4.299304008E0;8.764310837E0;1.343569875E0;9.854051929E0
2.583117570E-1;-4.299304008E0;8.764310837E0;1.333998680E0;9.852751488E0
2.604881180E-1;-4.323232174E0;8.764310837E0;1.319641709E0;9.861284658E0
2.626692200E-1;-4.313661098E0;8.769096375E0;1.333998680E0;9.863279159E0
2.648415820E-1;-4.318446636E0;8.783453941E0;1.329213023E0;9.877492179E0
2.670115150E-1;-4.323232174E0;8.783453941E0;1.319641709E0;9.878302172E0
2.691808070E-1;-4.299304008E0;8.778668404E0;1.319641709E0;9.863594078E0
2.713565880E-1;-4.304089546E0;8.769096375E0;1.310070395E0;9.855887707E0
2.735227670E-1;-4.304089546E0;8.764310837E0;1.310070395E0;9.851630104E0
2.756914060E-1;-4.284946918E0;8.773882866E0;1.310070395E0;9.851805676E0
2.778627820E-1;-4.270590305E0;8.774480820E0;1.300499082E0;9.844833827E0
2.800314030E-1;-4.275375843E0;8.755337715E0;1.305882931E0;9.830570041E0
2.821923530E-1;-4.246662140E0;8.745766640E0;1.296311617E0;9.808312661E0
2.843796900E-1;-4.232305050E0;8.755337715E0;1.315454245E0;9.813193385E0
2.865544540E-1;-4.213162422E0;8.788837433E0;1.257428288E0;9.827284819E0
2.887222700E-1;-4.217947960E0;8.745766640E0;1.281954765E0;9.794025073E0
2.908899340E-1;-4.227519512E0;8.707481384E0;1.334596872E0;9.771044064E0
2.930613620E-1;-4.208376884E0;8.702695847E0;1.315454245E0;9.755909536E0
2.952329210E-1;-4.184448719E0;8.707481384E0;1.291526079E0;9.746685732E0
2.973947560E-1;-4.150949001E0;8.731410027E0;1.258026481E0;9.749386098E0
2.995605990E-1;-4.141377926E0;8.717052460E0;1.272383451E0;9.734319409E0
3.017403270E-1;-4.112663746E0;8.717052460E0;1.305882931E0;9.726578890E0
3.039010120E-1;-4.131806374E0;8.750552177E0;1.310668588E0;9.765338676E0
3.060911970E-1;-4.141377926E0;8.745766640E0;1.296311617E0;9.763189492E0
3.082579560E-1;-4.150949001E0;8.755337715E0;1.301097274E0;9.776460005E0
3.104333310E-1;-4.136591911E0;8.750552177E0;1.296311617E0;9.765448267E0
3.125977080E-1;-4.131806374E0;8.755337715E0;1.310668588E0;9.769627145E0
3.147558900E-1;-4.107878208E0;8.769695282E0;1.329811215E0;9.774999569E0
3.169285490E-1;-4.103092670E0;8.769695282E0;1.320239902E0;9.771691675E0
3.191110850E-1;-4.098307133E0;8.755337715E0;1.310668588E0;9.755506753E0
3.212924820E-1;-4.103092670E0;8.784051895E0;1.296311617E0;9.781378275E0
3.234585690E-1;-4.088735580E0;8.812766075E0;1.286142230E0;9.799835018E0
3.256273610E-1;-4.103092670E0;8.812766075E0;1.305284739E0;9.808362942E0
3.277975280E-1;-4.112663746E0;8.807980537E0;1.300499082E0;9.807437081E0
3.299693110E-1;-4.112663746E0;8.831908226E0;1.290927768E0;9.827670146E0
3.321369650E-1;-4.094119549E0;8.851051331E0;1.281356573E0;9.835893412E0
3.343013320E-1;-4.070191383E0;8.851051331E0;1.271785259E0;9.824714006E0
3.364990140E-1;-4.055834293E0;8.865407944E0;1.262213945E0;9.830484925E0
3.386533320E-1;-4.046263218E0;8.846264839E0;1.266999602E0;9.809889685E0
3.408263160E-1;-4.046263218E0;8.822337151E0;1.276570916E0;9.789561386E0
3.429895650E-1;-4.055834293E0;8.831908226E0;1.300499082E0;9.805289011E0
3.451622840E-1;-4.051048756E0;8.860622406E0;1.333998680E0;9.833675708E0
3.473306700E-1;-4.036691666E0;8.870193481E0;1.343569875E0;9.837702578E0
3.494960150E-1;-4.017549038E0;8.860622406E0;1.348355532E0;9.821883339E0
3.516774320E-1;-4.017549038E0;8.855836868E0;1.367498159E0;9.820213752E0
3.538483200E-1;-3.993621111E0;8.827122688E0;1.420140266E0;9.792032624E0
3.560259930E-1;-4.007977962E0;8.865407944E0;1.439282775E0;9.835185828E0
3.581990170E-1;-4.007977962E0;8.841479301E0;1.453639746E0;9.815737980E0
3.603503030E-1;-3.864408493E0;8.774480820E0;1.515853167E0;9.706852089E0
3.625345380E-1;-3.998406649E0;8.898907661E0;1.467398524E0;9.865651105E0
3.647028220E-1;-4.051048756E0;8.908478737E0;1.457827210E0;9.894303897E0
3.668794380E-1;-4.046263218E0;8.874979019E0;1.472184181E0;9.864320802E0
3.690398180E-1;-4.031308174E0;8.841479301E0;1.534995675E0;9.837652848E0
3.711915920E-1;-3.964308977E0;8.760123253E0;1.511067510E0;9.733387390E0
3.733894270E-1;-3.911666870E0;8.712266922E0;1.516451359E0;9.669765113E0
3.755597050E-1;-3.940380573E0;8.659625053E0;1.540379524E0;9.637866683E0
3.777375820E-1;-3.945166349E0;8.621937752E0;1.440479279E0;9.590470722E0
3.798967820E-1;-3.906881094E0;8.593224525E0;1.416550994E0;9.545357214E0
3.820559730E-1;-3.887738705E0;8.574081421E0;1.416550994E0;9.520294174E0
3.842414680E-1;-3.849453449E0;8.526225090E0;1.407577872E0;9.460236869E0
3.864017160E-1;-3.844667673E0;8.502297401E0;1.393221021E0;9.434595669E0
3.885898970E-1;-3.830310822E0;8.478966713E0;1.369292736E0;9.404207575E0
3.907562390E-1;-3.835096598E0;8.488538742E0;1.331007600E0;9.409295251E0
3.929323260E-1;-3.782454491E0;8.526823044E0;1.307079315E0;9.419242514E0
3.950990630E-1;-3.720241070E0;8.574680328E0;1.354935765E0;9.444638017E0
3.972704100E-1;-3.801596880E0;8.565108299E0;1.311864972E0;9.462251779E0
3.994413990E-1;-3.887738705E0;8.564510345E0;1.326221943E0;9.498642763E0
4.016119930E-1;-3.973880291E0;8.578866959E0;1.359123230E0;9.551748469E0
4.037805830E-1;-4.064807415E0;8.606983185E0;1.397408366E0;9.620580492E0
4.059524470E-1;-4.131806374E0;8.640482903E0;1.482951880E0;9.691693091E0
4.081221450E-1;-4.189234257E0;8.654241562E0;1.569093466E0;9.742054967E0
4.102936240E-1;-4.227519512E0;8.692526817E0;1.654636860E0;9.806618522E0
4.124619590E-1;-4.255635262E0;8.682954788E0;1.683350682E0;9.815182365E0
4.146268440E-1;-4.260420799E0;8.682954788E0;1.740778446E0;9.827268127E0
4.168113950E-1;-4.317848682E0;8.715856552E0;1.759921074E0;9.884700039E0
4.189819880E-1;-4.384847641E0;8.744570732E0;1.783251047E0;9.943560249E0
4.211532540E-1;-4.408775806E0;8.754141808E0;1.773679733E0;9.960835442E0
4.233179160E-1;-4.451846600E0;8.734998703E0;1.792822361E0;9.966611887E0
4.254793640E-1;-4.485345840E0;8.696713448E0;1.788634896E0;9.947379901E0
4.276650330E-1;-4.514060020E0;8.668000221E0;1.812563181E0;9.939635355E0
4.298315880E-1;-4.514060020E0;8.653642654E0;1.822134495E0;9.928869179E0
4.319971770E-1;-4.552345276E0;8.639286041E0;1.836491346E0;9.936488881E0
4.341735770E-1;-4.561916351E0;8.657830238E0;1.855633974E0;9.960546304E0
4.363361550E-1;-4.585844517E0;8.643473625E0;1.889133453E0;9.965361581E0
4.385227090E-1;-4.614558697E0;8.653044701E0;1.922034740E0;9.993175276E0
4.406894480E-1;-4.633102894E0;8.638688087E0;1.950748682E0;9.994898435E0
4.428636930E-1;-4.647459984E0;8.590831757E0;1.970489502E0;9.964140879E0
4.450313650E-1;-4.661816597E0;8.609973907E0;2.027318954E0;9.998710258E0
4.472031090E-1;-4.657031059E0;8.595617294E0;2.056631088E0;9.990110429E0
4.493755640E-1;-4.685744762E0;8.581260681E0;2.070987940E0;9.994159790E0
4.515468500E-1;-4.695316315E0;8.595019341E0;2.127817631E0;1.002237300E1
4.537168220E-1;-4.676173687E0;8.590232849E0;2.185245275E0;1.002167639E1
4.558866720E-1;-4.690530777E0;8.590232849E0;2.252244234E0;1.004319588E1
4.580504910E-1;-4.685744762E0;8.614161491E0;2.280958176E0;1.006790705E1
4.602016750E-1;-4.690530777E0;8.638090134E0;2.290529490E0;1.009277987E1
4.623996740E-1;-4.666602135E0;8.681160927E0;2.309073925E0;1.012282337E1
4.645684850E-1;-4.685744762E0;8.681160927E0;2.280359983E0;1.012515682E1
4.667467590E-1;-4.709673405E0;8.709874153E0;2.275574446E0;1.015978201E1
4.689126840E-1;-4.752744198E0;8.724231720E0;2.299502611E0;1.019747561E1
4.710865430E-1;-4.767100811E0;8.771489143E0;2.351546526E0;1.025641472E1
4.732564850E-1;-4.771886349E0;8.790632248E0;2.394617319E0;1.028495536E1
4.754264060E-1;-4.786243439E0;8.833703041E0;2.413161755E0;1.033275304E1
4.775971930E-1;-4.791028976E0;8.852845192E0;2.446661234E0;1.035919774E1
4.797647350E-1;-4.805386066E0;8.895915985E0;2.475374937E0;1.040944463E1
4.819286250E-1;-4.815555573E0;8.943174362E0;2.493919373E0;1.045894722E1
4.841087800E-1;-4.782055855E0;8.986245155E0;2.536990166E0;1.049080451E1
4.862732290E-1;-4.767699242E0;9.029315948E0;2.589034081E0;1.053387868E1
4.884570370E-1;-4.767699242E0;9.091529846E0;2.621935368E0;1.059534879E1
4.906184040E-1;-4.796412945E0;9.125029564E0;2.645863533E0;1.064294769E1
4.927742060E-1;-4.834698200E0;9.148957253E0;2.665006161E0;1.068550342E1
4.949520310E-1;-4.820341110E0;9.158528328E0;2.693720102E0;1.069441244E1
4.971370600E-1;-4.834698200E0;9.196215630E0;2.736192703E0;1.074390241E1
4.993125870E-1;-4.877768993E0;9.239286423E0;2.788834810E0;1.081363230E1
5.014788170E-1;-4.887340069E0;9.272786140E0;2.788236618E0;1.084642426E1
5.036410180E-1;-4.935196877E0;9.291928291E0;2.816950560E0;1.089180013E1
5.058218130E-1;-4.963910580E0;9.343972206E0;2.797209740E0;1.094415859E1
5.079910750E-1;-5.030909538E0;9.348757744E0;2.806781054E0;1.098122680E1
5.101639370E-1;-5.088337421E0;9.348757744E0;2.825923443E0;1.101255158E1
5.123324950E-1;-5.174479008E0;9.315258980E0;2.811566591E0;1.102062564E1
5.144984490E-1;-5.250451088E0;9.329017639E0;2.830709219E0;1.107297256E1
5.166459710E-1;-5.312664509E0;9.300303459E0;2.849851847E0;1.108339768E1
5.188219570E-1;-5.336592674E0;9.290732384E0;2.883351326E0;1.109552362E1
5.210038720E-1;-5.350949764E0;9.257232666E0;2.907279491E0;1.108067209E1
5.231790840E-1;-5.360520840E0;9.233304024E0;2.931805849E0;1.107179174E1
5.253446510E-1;-5.389235020E0;9.190233231E0;2.941377163E0;1.105241786E1
5.275185300E-1;-5.408377171E0;9.180662155E0;3.003590584E0;1.107053105E1
5.296890430E-1;-5.422136307E0;9.123234749E0;3.027518749E0;1.103625136E1
5.318614770E-1;-5.436492920E0;9.061020851E0;3.042474031E0;1.099609942E1
5.340319790E-1;-5.412564754E0;9.003593445E0;3.061616659E0;1.094230546E1
5.362107410E-1;-5.446064472E0;8.950951576E0;3.038286448E0;1.090918590E1
5.383755460E-1;-5.446064472E0;8.888737679E0;3.038286448E0;1.085819784E1
5.405457730E-1;-5.412564754E0;8.793622971E0;3.019742250E0;1.075836909E1
5.427136810E-1;-5.378467083E0;8.697910309E0;2.977269650E0;1.065108851E1
5.448859210E-1;-5.349753380E0;8.621339798E0;2.891726255E0;1.055032899E1
5.470573180E-1;-5.297111034E0;8.540582657E0;2.825325251E0;1.043951149E1
5.492288170E-1;-5.301896572E0;8.497511864E0;2.763710260E0;1.039018333E1
5.513999300E-1;-5.263611794E0;8.445467949E0;2.701496840E0;1.031162563E1
5.535707170E-1;-5.206183910E0;8.411968231E0;2.639881611E0;1.023887373E1
5.557432830E-1;-5.167898655E0;8.411968231E0;2.611167669E0;1.021208023E1
5.579146190E-1;-5.167898655E0;8.397610664E0;2.553740025E0;1.018570712E1
5.600841030E-1;-5.124827862E0;8.307282448E0;2.506481647E0;1.007756183E1
5.622540860E-1;-5.650052547E0;7.567301750E0;9.044869542E-1;9.487109476E0
5.644249440E-1;-5.507081509E0;7.558328629E0;9.379864931E-1;9.398728481E0
5.665962900E-1;-5.186442852E0;7.853842258E0;1.854437590E0;9.592755936E0
5.687676870E-1;-5.014758110E0;8.020143509E0;2.603989124E0;9.810772659E0
5.709393180E-1;-4.775475979E0;8.139784813E0;2.894717216E0;9.871203340E0
5.731114890E-1;-4.741976261E0;8.154141426E0;2.928216696E0;9.876781575E0
5.752819600E-1;-4.642076015E0;8.221738815E0;2.813361168E0;9.851947013E0
5.774516070E-1;-4.575077057E0;8.236693382E0;2.569891453E0;9.766206532E0
5.796223230E-1;-4.579862595E0;8.251050949E0;2.321038008E0;9.718137712E0
5.817937090E-1;-4.585246563E0;8.351549149E0;2.139183521E0;9.764679481E0
5.839645170E-1;-4.518247128E0;8.361719131E0;1.995614052E0;9.711610545E0
5.861355670E-1;-4.475176334E0;8.495717049E0;1.894517303E0;9.787420866E0
5.883067290E-1;-4.499702930E0;8.586644173E0;1.798206210E0;9.859580629E0
5.904764180E-1;-4.461417675E0;8.701499939E0;1.702493310E0;9.925665334E0
5.926394940E-1;-4.504488468E0;8.782855988E0;1.658824325E0;1.000902961E1
5.948184080E-1;-4.504488468E0;8.835497856E0;1.610967875E0;1.004747014E1
5.969893470E-1;-4.533800602E0;8.892925262E0;1.567298889E0;1.010425126E1
5.991641220E-1;-4.628915310E0;8.930612564E0;1.633699656E0;1.019076407E1
6.013353360E-1;-4.691128731E0;9.021539688E0;1.757528186E0;1.031909746E1
6.035139460E-1;-4.810770035E0;9.097511292E0;1.953141451E0;1.047487382E1
6.056755240E-1;-4.839483738E0;9.149555206E0;2.273181438E0;1.059727876E1
6.078470440E-1;-4.935196877E0;9.192028046E0;2.526222467E0;1.073458652E1
6.100155520E-1;-5.078765869E0;9.291330338E0;2.797807932E0;1.095218752E1
6.121832370E-1;-5.269593716E0;9.396016121E0;3.093321562E0;1.120813879E1
6.143408600E-1;-5.451447964E0;9.457033157E0;3.336193085E0;1.141419929E1
6.165286040E-1;-5.700301647E0;9.542576790E0;3.503092289E0;1.165443548E1
6.186989020E-1;-6.010770321E0;9.599406242E0;3.531208038E0;1.186370053E1
6.208910200E-1;-6.312266350E0;9.650852203E0;3.573680639E0;1.207289725E1
6.230585930E-1;-6.632306099E0;9.707681656E0;3.482155085E0;1.226180946E1
6.252321460E-1;-6.785446644E0;9.698110580E0;3.376870871E0;1.230848861E1
6.273992700E-1;-6.876374245E0;9.726823807E0;3.247658491E0;1.234677730E1
6.295605760E-1;-7.005586624E0;9.702896118E0;3.089732170E0;1.236005186E1
6.317079160E-1;-7.034300327E0;9.722038269E0;2.898904562E0;1.234516330E1
6.338912750E-1;-6.962515831E0;9.693922997E0;2.774477959E0;1.225342800E1
6.360678800E-1;-6.847660065E0;9.632308006E0;2.703291416E0;1.212351394E1
6.382594390E-1;-6.623332977E0;9.608379364E0;2.804388046E0;1.200225337E1
6.404264320E-1;-6.384050846E0;9.494122505E0;2.995813847E0;1.182663807E1
6.425983890E-1;-6.135197163E0;9.340981483E0;3.236292601E0;1.163478273E1
6.447612700E-1;-5.895915031E0;9.212367058E0;3.480958700E0;1.147809193E1
6.469166150E-1;-5.727818966E0;9.102297783E0;3.768097401E0;1.139553830E1
6.490944100E-1;-5.622535229E0;9.011369705E0;4.045664787E0;1.136596190E1
6.512777200E-1;-5.579464436E0;8.919844627E0;4.333401680E0;1.137859489E1
6.534526170E-1;-5.550750256E0;8.852845192E0;4.515256405E0;1.138293621E1
6.556229750E-1;-5.564508915E0;8.795417786E0;4.658825874E0;1.140297295E1
6.577839250E-1;-5.593223095E0;8.761918068E0;4.744967461E0;1.142672608E1
6.599358410E-1;-5.598008633E0;8.709276199E0;4.788038254E0;1.140677443E1
6.621341660E-1;-5.621936798E0;8.685347557E0;4.831109047E0;1.141845218E1
6.643013500E-1;-5.631507874E0;8.647063255E0;4.846064091E0;1.140043513E1
6.664792680E-1;-5.631507874E0;8.623134613E0;4.788636208E0;1.135796497E1
6.686385900E-1;-5.598008633E0;8.570492744E0;4.693521500E0;1.126144709E1
6.707946680E-1;-5.564508915E0;8.508877754E0;4.603192329E0;1.116038260E1
6.729922190E-1;-5.497509956E0;8.451449394E0;4.450650215E0;1.102079398E1
6.751599220E-1;-5.440082073E0;8.361120224E0;4.283750534E0;1.085602796E1
6.773382770E-1;-5.373083115E0;8.294719696E0;4.092923164E0;1.069693494E1
6.794946290E-1;-5.315655708E0;8.218747139E0;3.930809498E0;1.054776106E1
6.816468820E-1;-5.234299660E0;8.118846893E0;3.802793503E0;1.038146455E1
6.838411770E-1;-5.172086239E0;8.032705307E0;3.659822226E0;1.023079319E1
6.860136010E-1;-5.124229908E0;7.932805061E0;3.507279873E0;1.007413224E1
6.881920770E-1;-5.062016487E0;7.852047443E0;3.445664644E0;9.957472812E0
6.903553780E-1;-4.989633560E0;7.741977692E0;3.388834953E0;9.814217441E0
6.925254830E-1;-4.932205677E0;7.675576687E0;3.370290756E0;9.726252624E0
6.946998600E-1;-4.860421181E0;7.575078487E0;3.351746321E0;9.604150746E0
6.968718070E-1;-4.812564373E0;7.503293514E0;3.333201885E0;9.516849490E0
6.990401620E-1;-4.755136967E0;7.389036179E0;3.314657450E0;9.391279850E0
7.012104710E-1;-4.702494621E0;7.336394310E0;3.272184849E0;9.308239942E0
7.033812870E-1;-4.678566456E0;7.302894592E0;3.305684566E0;9.281638000E0
7.055533450E-1;-4.673780918E0;7.259823799E0;3.339184046E0;9.257398109E0
7.077238670E-1;-4.640281200E0;7.212565422E0;3.387638569E0;9.221139011E0
7.098949290E-1;-4.616353035E0;7.212565422E0;3.434896946E0;9.226610013E0
7.120598150E-1;-4.563711166E0;7.183851719E0;3.483351469E0;9.196136286E0
7.142059940E-1;-4.491926193E0;7.116852760E0;3.555136204E0;9.135972174E0
7.163958650E-1;-4.424927235E0;7.073781967E0;3.627519131E0;9.098201327E0
7.185788480E-1;-4.377070904E0;7.011568546E0;3.684946775E0;9.049843972E0
7.207547010E-1;-4.372285366E0;6.997211456E0;3.699303865E0;9.042272755E0
7.229114090E-1;-4.347758770E0;6.925426960E0;3.752544165E0;8.997006869E0
7.250891830E-1;-4.304687977E0;6.877570629E0;3.795614958E0;8.957567150E0
7.272499400E-1;-4.280759811E0;6.844669342E0;3.800400496E0;8.922860914E0
7.294370430E-1;-4.266402721E0;6.811169624E0;3.839283943E0;8.906981814E0
7.316040160E-1;-4.252045631E0;6.777669907E0;3.882354736E0;8.893220998E0
7.337784140E-1;-4.242474556E0;6.725028038E0;3.891926050E0;8.852778143E0
7.359475830E-1;-4.175475597E0;6.662814617E0;3.882952929E0;8.769550646E0
7.381194980E-1;-4.132404804E0;6.586244106E0;3.850051641E0;8.676305581E0
7.402894510E-1;-4.170690060E0;6.567101955E0;3.902693748E0;8.703591337E0
7.424609700E-1;-4.180261135E0;6.538387775E0;3.917050600E0;8.693007722E0
7.446308610E-1;-4.217947960E0;6.524031162E0;3.921836376E0;8.702578248E0
7.468001110E-1;-4.246662140E0;6.509674072E0;3.936193228E0;8.712267959E0
7.489611840E-1;-4.284946918E0;6.514459610E0;3.950550079E0;8.741041130E0
7.511449500E-1;-4.313661098E0;6.466603279E0;3.974478483E0;8.730470162E0
7.533148830E-1;-4.351946354E0;6.433103561E0;3.951148272E0;8.714116775E0
7.554897480E-1;-4.351946354E0;6.370890141E0;3.984647989E0;8.683610876E0
7.576571980E-1;-4.356731892E0;6.337390900E0;3.932005882E0;8.637378448E0
7.598253300E-1;-4.428516388E0;6.332605362E0;3.955934048E0;8.681190141E0
7.619994020E-1;-4.494917393E0;6.317649841E0;4.018147469E0;8.732839800E0
7.641713580E-1;-4.509274483E0;6.303293228E0;4.051646709E0;8.745336068E0
7.663439550E-1;-4.533202648E0;6.255436420E0;4.028316975E0;8.712505306E0
7.685086800E-1;-4.542773724E0;6.207580090E0;4.052245140E0;8.694339213E0
7.706684600E-1;-4.576273441E0;6.193223000E0;4.042674065E0;8.697212388E0
7.728550950E-1;-4.600201607E0;6.154938221E0;4.033700943E0;8.678471215E0
7.750272950E-1;-4.585844517E0;6.121438503E0;4.033700943E0;8.647122214E0
7.772065350E-1;-4.623531342E0;6.092724800E0;4.043272018E0;8.651380593E0
7.793625410E-1;-4.637888432E0;6.054439545E0;4.057629108E0;8.638900467E0
7.815200420E-1;-4.652245522E0;6.006583214E0;4.019941807E0;8.595485002E0
7.837094450E-1;-4.661816597E0;5.968297958E0;4.010370731E0;8.569491695E0
7.858784510E-1;-4.666602135E0;5.897111416E0;4.015754700E0;8.525220486E0
7.880547620E-1;-4.623531342E0;5.830112457E0;3.982853174E0;8.439808809E0
7.902247450E-1;-4.580460548E0;5.753541946E0;3.934996843E0;8.340747204E0
7.924128660E-1;-4.584648132E0;5.663212776E0;3.887738705E0;8.258661495E0
7.945653820E-1;-4.565505505E0;5.553143024E0;3.802793503E0;8.132802493E0
7.967370030E-1;-4.527220249E0;5.514857769E0;3.812364578E0;8.089715883E0
7.989027740E-1;-4.522434711E0;5.495715618E0;3.855435371E0;8.094423252E0
8.010749750E-1;-4.455435753E0;5.405386448E0;3.865604877E0;8.000750682E0
8.032355080E-1;-4.421936035E0;5.333601475E0;3.899104595E0;7.950084253E0
8.054205660E-1;-4.398007870E0;5.242674351E0;3.875774384E0;7.864460226E0
8.075900300E-1;-4.331008911E0;5.213960648E0;3.962514400E0;7.851403963E0
8.097645810E-1;-4.292723656E0;5.161318302E0;3.991228104E0;7.810031036E0
8.119320000E-1;-4.254438877E0;5.118845940E0;4.039084435E0;7.785694380E0
8.141013930E-1;-4.201796532E0;5.056632519E0;4.034897327E0;7.713949894E0
8.162660960E-1;-4.162913322E0;4.980062008E0;4.011567116E0;7.630434828E0
8.184464860E-1;-4.153341770E0;4.928018093E0;3.934996843E0;7.551146293E0
8.206164990E-1;-4.033700943E0;4.870590687E0;3.945166349E0;7.453706089E0
8.227898810E-1;-4.038486481E0;4.813162804E0;3.826123476E0;7.356298667E0
8.249592010E-1;-4.296313286E0;4.317250252E0;2.776870728E0;6.693875456E0
8.271306600E-1;-3.861417532E0;4.584648132E0;3.631706476E0;7.008483130E0
8.293006220E-1;-3.808775425E0;4.784449100E0;4.409373760E0;7.539250652E0
8.314727420E-1;-3.890131474E0;4.807778835E0;4.433301926E0;7.609338090E0
8.336512090E-1;-3.995415688E0;4.826921463E0;4.337589264E0;7.620839714E0
8.358420960E-1;-4.043272018E0;4.817350388E0;4.179663181E0;7.551456660E0
8.379760070E-1;-4.067200184E0;4.789234638E0;4.074378967E0;7.488621350E0
8.401565900E-1;-4.067200184E0;4.722235680E0;4.007977962E0;7.409825538E0
8.423199100E-1;-4.086342812E0;4.707878590E0;4.022335052E0;7.418995731E0
8.444995870E-1;-4.076771736E0;4.703093052E0;4.041477680E0;7.421097889E0
8.466650940E-1;-4.062414646E0;4.664807796E0;4.080360889E0;7.410329920E0
8.488273360E-1;-4.062414646E0;4.640879631E0;4.133002758E0;7.424465523E0
8.510123340E-1;-4.081557274E0;4.636094093E0;4.214358807E0;7.477519533E0
8.531823060E-1;-4.057629108E0;4.636094093E0;4.242474556E0;7.480395229E0
8.553537330E-1;-4.014558315E0;4.655236244E0;4.266402721E0;7.482652948E0
8.575145710E-1;-4.043272018E0;4.712066174E0;4.319045067E0;7.563449380E0
8.596661730E-1;-4.028914928E0;4.750350952E0;4.371088982E0;7.609494632E0
8.618646190E-1;-4.024129391E0;4.731208801E0;4.395017147E0;7.608819212E0
8.640371140E-1;-4.067200184E0;4.769493580E0;4.442873478E0;7.683053500E0
8.662118060E-1;-4.091128349E0;4.759922504E0;4.485944271E0;7.714783822E0
8.683664800E-1;-4.115056515E0;4.783252239E0;4.518845558E0;7.761002337E0
8.705433100E-1;-4.143770695E0;4.797609329E0;4.533202648E0;7.793447061E0
8.727222550E-1;-4.148556232E0;4.850251675E0;4.509274483E0;7.814666754E0
8.748949840E-1;-4.162913322E0;4.845465660E0;4.547559261E0;7.841471802E0
8.770645190E-1;-4.205984116E0;4.831109047E0;4.557130814E0;7.861129579E0
8.792270760E-1;-4.249054909E0;4.855037212E0;4.575675011E0;7.909655856E0
8.813781790E-1;-4.277768612E0;4.868795872E0;4.604389191E0;7.950149518E0
8.835770220E-1;-4.316053867E0;4.887938499E0;4.613960266E0;7.988046889E0
8.857479300E-1;-4.354339123E0;4.921437740E0;4.609174728E0;8.026537878E0
8.879256640E-1;-4.373481750E0;4.945366383E0;4.589433670E0;8.040329141E0
8.900828810E-1;-4.473381996E0;4.878366947E0;4.398606300E0;7.947159740E0
8.922363440E-1;-4.459623337E0;4.950151920E0;4.441677094E0;8.007542678E0
8.944309230E-1;-4.383052826E0;5.030909538E0;4.828117847E0;8.236013891E0
8.966026260E-1;-4.378267288E0;5.078765869E0;5.052444935E0;8.395849392E0
8.987784790E-1;-4.406980991E0;5.135595798E0;5.104488850E0;8.476534202E0
9.009436000E-1;-4.454837322E0;5.197809219E0;5.061418056E0;8.513562650E0
9.031146600E-1;-4.512265205E0;5.231308460E0;5.017749310E0;8.538438594E0
9.052886810E-1;-4.531407833E0;5.264808178E0;4.993820667E0;8.555121680E0
9.074567720E-1;-4.531407833E0;5.293521881E0;5.003392220E0;8.578401049E0
9.096279260E-1;-4.550550461E0;5.322235584E0;5.065605640E0;8.642572627E0
9.117949790E-1;-4.560121536E0;5.374279499E0;5.103292465E0;8.701791916E0
9.139542200E-1;-4.588835716E0;5.426921844E0;5.117051125E0;8.757460028E0
9.161258900E-1;-4.478765965E0;5.426921844E0;5.413761139E0;8.878042292E0
9.182980910E-1;-4.440480709E0;5.359324455E0;5.801398277E0;9.060709107E0
9.204713700E-1;-4.459623337E0;5.379663467E0;5.026721954E0;8.607958697E0
9.226422080E-1;-4.607978344E0;5.537590027E0;4.849055290E0;8.683991302E0
9.248151410E-1;-4.741976261E0;5.647061348E0;4.982454777E0;8.899466070E0
9.270001590E-1;-4.818546772E0;5.708676815E0;5.158327579E0;9.078310822E0
9.291697150E-1;-4.866403103E0;5.722435474E0;5.254040241E0;9.166956189E0
9.313411520E-1;-4.899902344E0;5.722435474E0;5.273182869E0;9.195747295E0
9.335096910E-1;-4.895116806E0;5.727221012E0;5.258825779E0;9.187952854E0
9.356804770E-1;-4.770689964E0;5.684150219E0;5.550750256E0;9.267139518E0
9.378395760E-1;-4.808975220E0;5.674578667E0;5.498108387E0;9.249663861E0
9.400234850E-1;-4.919044971E0;5.713462353E0;5.057828903E0;9.078672188E0
9.421924810E-1;-4.947759151E0;5.761318684E0;4.933402061E0;9.056023934E0
9.443668280E-1;-5.000401020E0;5.789434433E0;4.976472855E0;9.126162583E0
9.465350910E-1;-5.033900738E0;5.837290764E0;5.042873859E0;9.211118111E0
9.487079740E-1;-5.067399979E0;5.822933674E0;5.119443893E0;9.262494529E0
9.508772350E-1;-5.067399979E0;5.818148136E0;5.176871777E0;9.291361131E0
9.530482860E-1;-5.053043365E0;5.836692810E0;5.272584915E0;9.348817139E0
9.552203130E-1;-5.062614441E0;5.874977589E0;5.329414368E0;9.409999158E0
9.573889130E-1;-5.086542606E0;5.927619934E0;5.382056236E0;9.485574474E0
9.595527210E-1;-5.124827862E0;5.974878311E0;5.462814331E0;9.581511982E0
9.617323790E-1;-5.143970490E0;5.989234924E0;5.567500114E0;9.660663792E0
9.639018220E-1;-4.995615482E0;5.931807518E0;5.831308842E0;9.702921070E0
9.660763930E-1;-5.115256786E0;5.979065418E0;6.026323795E0;9.911188312E0
9.682438730E-1;-5.306682587E0;5.984449387E0;5.362315655E0;9.629586892E0
9.704092680E-1;-5.421537876E0;5.879763603E0;4.794020176E0;9.324554811E0
9.725894040E-1;-5.321039200E0;6.022734642E0;5.356931686E0;9.658338772E0
9.747606070E-1;-5.306682587E0;6.102894306E0;5.868397713E0;9.992211502E0
9.769318510E-1;-5.344967365E0;6.102894306E0;5.868397713E0;1.001259640E1
9.791052820E-1;-5.392824173E0;6.174678802E0;5.709873199E0;9.990588713E0
9.812896190E-1;-5.340181828E0;6.270391941E0;5.991627693E0;1.018503606E1
9.834422580E-1;-5.340181828E0;6.308078766E0;6.139384747E0;1.029570030E1
9.856111220E-1;-5.368896008E0;6.360720634E0;6.110671043E0;1.032589521E1
9.877786130E-1;-5.416752338E0;6.355935097E0;6.019743443E0;1.029448532E1
9.899538250E-1;-5.450251579E0;6.365506649E0;5.938387394E0;1.027080143E1
9.921234720E-1;-5.474180222E0;6.375077724E0;5.924030781E0;1.028116753E1
9.942947260E-1;-5.502893925E0;6.408577442E0;6.014359951E0;1.036938918E1
9.964694700E-1;-5.541179180E0;6.393621922E0;6.086144447E0;1.042229448E1
9.986398090E-1;-5.545964718E0;6.350551128E0;6.200999737E0;1.046611781E1
1.000811013E0;-5.550750256E0;6.302694798E0;6.287141323E0;1.049108841E1
1.002981312E0;-5.488536835E0;6.231508255E0;6.120840549E0;1.031602737E1
1.005153074E0;-5.651248932E0;6.308078766E0;5.938387394E0;1.034373806E1
1.007324634E0;-5.703890800E0;6.307480335E0;5.924030781E0;1.036401559E1
1.009495339E0;-5.751747608E0;6.312266350E0;5.962316036E0;1.041520617E1
1.011670490E0;-5.789434433E0;6.297909260E0;6.086742401E0;1.049903068E1
1.013863240E0;-5.794219971E0;6.254838467E0;6.211169243E0;1.054867824E1
1.015995924E0;-5.832505226E0;6.244668961E0;6.301498413E0;1.061710365E1
1.018164662E0;-5.866004944E0;6.201598167E0;6.402595043E0;1.067066339E1
1.020346231E0;-5.779862881E0;6.096313953E0;6.665805817E0;1.072403030E1
1.022512867E0;-5.870192051E0;6.076572895E0;6.756732941E0;1.081837940E1
1.024689431E0;-6.008975983E0;6.096313953E0;6.436094761E0;1.070962894E1
1.026852049E0;-6.052046776E0;6.034100533E0;6.226124287E0;1.057365892E1
1.029021839E0;-6.109474182E0;6.010172367E0;6.278766632E0;1.062406500E1
1.031191070E0;-6.142973900E0;5.957530022E0;6.384050846E0;1.067634757E1
1.033363596E0;-6.156732559E0;5.890531063E0;6.408577442E0;1.066178113E1
1.035535145E0;-6.142375946E0;5.837290764E0;6.528218269E0;1.069674621E1
1.037706420E0;-6.147161484E0;5.808577061E0;6.609574318E0;1.073376143E1
1.039877013E0;-6.166304111E0;5.755934715E0;6.667002201E0;1.075188398E1
1.042049081E0;-6.190232277E0;5.755934715E0;6.591030121E0;1.071874238E1
1.044219054E0;-6.247660160E0;5.727818966E0;6.342176437E0;1.058604598E1
1.046388478E0;-6.242874146E0;5.656034470E0;6.309275150E0;1.052478771E1
1.048560211E0;-6.280561447E0;5.531607628E0;6.352943897E0;1.050733226E1
1.050731801E0;-6.414559364E0;5.269593716E0;5.503491879E0;9.960101035E0
1.052903381E0;-6.208776474E0;5.383851051E0;6.334399700E0;1.037590367E1
1.055074187E0;-6.213562012E0;5.330610752E0;6.698108673E0;1.057773244E1
1.057245248E0;-6.132206440E0;5.335396290E0;6.516852379E0;1.041824238E1
1.059417846E0;-5.921638012E0;5.445466042E0;6.845865726E0;1.056336948E1
1.061587596E0;-5.812166214E0;5.554937840E0;7.270591736E0;1.083974698E1
1.063756613E0;-5.692524910E0;5.621936798E0;7.466204643E0;1.094327305E1
1.065926025E0;-5.553741455E0;5.674578667E0;7.456633568E0;1.089248692E1
1.068089894E0;-5.492125988E0;5.770890236E0;7.403991699E0;1.087592364E1
1.070271698E0;-5.415555954E0;5.895316601E0;7.408178806E0;1.090706731E1
1.072442006E0;-5.243870735E0;5.995815277E0;7.407580853E0;1.087751052E1
1.074615946E0;-5.133800983E0;6.134599209E0;7.397411346E0;1.089545385E1
1.076785268E0;-5.024329185E0;6.273382664E0;7.430312634E0;1.094571878E1
1.078956289E0;-4.881358147E0;6.407381058E0;7.343572617E0;1.090001138E1
1.081125834E0;-4.690530777E0;6.661019802E0;7.423732281E0;1.102189025E1
1.083296703E0;-4.470989227E0;6.895516872E0;7.580461979E0;1.118039809E1
1.085467824E0;-4.284946918E0;7.153941631E0;7.679764271E0;1.133659694E1
1.087639709E0;-4.118047714E0;7.503293514E0;7.615756035E0;1.145676527E1
1.089809326E0;-3.979862213E0;7.852645874E0;7.546962738E0;1.159568873E1
1.091976624E0;-3.798605919E0;8.221140862E0;7.664809227E0;1.186447911E1
1.094155701E0;-3.780061483E0;8.493922234E0;7.395616531E0;1.187984527E1
1.096324137E0;-3.957728624E0;8.481359482E0;6.000002861E0;1.111742366E1
1.098495484E0;-3.595216036E0;9.169296265E0;6.766304016E0;1.194924443E1
1.100661439E0;-3.504886866E0;9.722636223E0;7.537391186E0;1.279164387E1
1.102824209E0;-3.515056372E0;1.024307537E1;7.697112083E0;1.328614876E1
1.105005636E0;-3.516252756E0;1.083111191E1;7.818548203E0;1.381328037E1
1.107176962E0;-3.626920938E0;1.146162033E1;7.953742504E0;1.441476035E1
1.109352366E0;-3.766901016E0;1.215434265E1;7.896913052E0;1.497594152E1
1.111521963E0;-3.968496323E0;1.273220921E1;7.884350777E0;1.549261442E1
1.113693747E0;-4.222733974E0;1.330050468E1;7.823931694E0;1.599840036E1
1.115862590E0;-4.505684853E0;1.392144203E1;7.719843864E0;1.654399388E1
1.118035991E0;-4.793421745E0;1.464287853E1;7.591229916E0;1.717607509E1
1.120218954E0;-5.110470772E0;1.536909962E1;7.520043373E0;1.785713266E1
1.122389823E0;-5.436492920E0;1.610907936E1;7.430312634E0;1.855444526E1
1.124558554E0;-5.681159019E0;1.688794327E1;7.497311592E0;1.933100817E1
1.126716259E0;-5.926423550E0;1.775235176E1;7.645666599E0;2.021694109E1
1.128902630E0;-6.152545452E0;1.865025711E1;7.649854183E0;2.107619925E1
1.131071921E0;-6.321238995E0;1.948176384E1;7.516454220E0;2.181729288E1
1.133246319E0;-6.533003807E0;2.030848312E1;7.397411346E0;2.257955536E1
1.135409486E0;-6.739385128E0;2.102992058E1;7.201797962E0;2.322805987E1
1.137571188E0;-6.946363926E0;2.165624046E1;6.988238335E0;2.379243993E1
1.139755495E0;-7.181458950E0;2.219582367E1;6.779464722E0;2.429380750E1
1.141926882E0;-7.305885792E0;2.232982063E1;6.577869415E0;2.439805777E1
1.144100354E0;-7.362715244E0;2.198106766E1;6.393621922E0;2.404693977E1
1.146268353E0;-7.375875950E0;2.106341934E1;6.211767673E0;2.316586364E1
1.148433473E0;-7.302296638E0;1.990708733E1;6.199205399E0;2.209175886E1
1.150593874E0;-7.028318405E0;1.885125542E1;6.229115486E0;2.106107714E1
1.152761456E0;-6.538986206E0;1.788694763E1;6.239284992E0;2.004070641E1
1.154965872E0;-5.806184292E0;1.695613861E1;6.263811588E0;1.898572485E1
1.157110872E0;-4.929812908E0;1.592543125E1;6.370890141E0;1.784686687E1
1.159276450E0;-3.890729666E0;1.473739433E1;6.544968128E0;1.658810347E1
1.161459871E0;-2.803191662E0;1.336271763E1;6.610770702E0;1.516978560E1
1.163638481E0;-1.806581140E0;1.180678558E1;6.548557281E0;1.362158301E1
1.165810274E0;-8.291130662E-1;1.028435135E1;6.485745907E0;1.218688685E1
1.167971132E0;-9.571290575E-3;8.679964066E0;6.351747513E0;1.075576888E1
1.170121513E0;7.531409264E-1;7.147361279E0;6.178866386E0;9.477889233E0
1.172320702E0;1.371685624E0;5.734399319E0;5.818746567E0;8.283880045E0
1.174489311E0;1.899302959E0;4.388436794E0;5.295914650E0;7.135295454E0
1.176666913E0;2.297708035E0;3.175873756E0;4.667200565E0;6.094948519E0
1.178828667E0;2.590828657E0;2.088335991E0;3.951746702E0;5.166221283E0
1.180994550E0;2.792423964E0;1.162313581E0;3.154338360E0;4.370177907E0
1.183178561E0;2.927618504E0;4.372883439E-1;2.340778828E0;3.773780163E0
1.185346560E0;3.004188776E0;-7.298108935E-2;1.660020709E0;3.433095570E0
1.187520114E0;3.090330362E0;-2.536391914E-1;1.173679471E0;3.315418237E0
1.189684268E0;3.186043262E0;-1.142572835E-1;9.391828775E-1;3.323550944E0
1.191843082E0;3.323630571E0;3.349951804E-1;1.032503009E0;3.496398777E0
1.194017520E0;3.533002615E0;9.086744189E-1;1.249651670E0;3.856089467E0
1.196202416E0;3.699902058E0;1.367498159E0;1.509871125E0;4.223628448E0
1.198376926E0;3.814159393E0;1.687538147E0;1.718644857E0;4.511023944E0
1.200547885E0;3.814159393E0;1.897508383E0;1.899302959E0;4.664300770E0
1.202713525E0;3.713660717E0;2.050050735E0;2.056032896E0;4.713942640E0
1.204885287E0;3.517449379E0;2.212164640E0;2.250449657E0;4.725531313E0
1.207055727E0;3.196810961E0;2.431107759E0;2.440679073E0;4.699659519E0
1.209227379E0;2.799602509E0;2.702095032E0;2.553141832E0;4.653775347E0
1.211394972E0;2.306680918E0;3.031108141E0;2.660818815E0;4.646326526E0
1.213555353E0;1.727617979E0;3.416950703E0;2.715853691E0;4.694260033E0
1.215734663E0;1.082154036E0;3.836292982E0;2.760719061E0;4.848687548E0
1.217913384E0;3.547359705E-1;4.283750534E0;2.762513638E0;5.109582942E0
1.220085310E0;-3.631108403E-1;4.750949383E0;2.706880569E0;5.480015688E0
1.222251825E0;-1.143171072E0;5.251647472E0;2.531606436E0;5.941016110E0
1.224416405E0;-1.894517303E0;5.728417397E0;2.332403898E0;6.468699222E0
1.226614099E0;-2.598007202E0;6.166902065E0;2.032702923E0;6.993726022E0
1.228766381E0;-3.282354355E0;6.586842537E0;1.604387641E0;7.532224401E0
1.230940963E0;-3.880560160E0;6.945167542E0;1.028913736E0;8.022017378E0
1.233105808E0;-4.411766529E0;7.212565422E0;3.864408433E-1;8.463694253E0
1.235278751E0;-4.871188641E0;7.494320393E0;-2.464607358E-1;8.941703407E0
1.237448887E0;-5.312066078E0;7.843672752E0;-9.415757060E-1;9.519864131E0
1.239619470E0;-5.666203976E0;8.149355888E0;-1.569691658E0;1.004897014E1
1.241791183E0;-5.982655048E0;8.446065903E0;-2.096710920E0;1.056051075E1
1.243964177E0;-6.260222435E0;8.766105652E0;-2.481357098E0;1.105405474E1
1.246133731E0;-6.500102520E0;9.148359299E0;-2.794218540E0;1.156509697E1
1.248302728E0;-6.682555676E0;9.535398483E0;-2.820539713E0;1.198064351E1
1.250478907E0;-6.831508636E0;9.964909554E0;-2.636292458E0;1.236604102E1
1.252649521E0;-7.037291527E0;1.045663452E1;-2.366501570E0;1.282439111E1
1.254819706E0;-7.258029461E0;1.103390312E1;-2.011765718E0;1.335938663E1
1.256983178E0;-7.550551891E0;1.160638618E1;-1.603789330E0;1.393883691E1
1.259136672E0;-7.895716667E0;1.226919842E1;-1.158724308E0;1.463619532E1
1.261332484E0;-8.316853523E0;1.298943806E1;-6.705885530E-1;1.543843394E1
1.263502426E0;-8.748159409E0;1.370010567E1;-2.350948304E-1;1.625664350E1
1.265679672E0;-9.098110199E0;1.438684654E1;1.956132501E-1;1.702337297E1
1.267840581E0;-9.457033157E0;1.493061543E1;6.275177598E-1;1.768481076E1
1.269996984E0;-9.720842361E0;1.536431408E1;9.260223508E-1;1.820479170E1
1.272184484E0;-9.917053223E0;1.559761429E1;1.115653515E0;1.851697056E1
1.274344975E0;-9.998409271E0;1.567418480E1;1.306481123E0;1.863746630E1
1.276533197E0;-9.954740524E0;1.549233055E1;1.407577872E0;1.846863396E1
1.278695826E0;-9.782457352E0;1.515314770E1;1.443470240E0;1.809414168E1
1.280858800E0;-9.552147865E0;1.462313747E1;1.451246977E0;1.752671664E1
1.283043360E0;-9.101698875E0;1.393579865E1;1.402792215E0;1.670374905E1
1.285214076E0;-8.737391472E0;1.313360500E1;1.339980721E0;1.583127090E1
1.287389501E0;-8.348558426E0;1.223569870E1;1.311864972E0;1.487049899E1
1.289554388E0;-7.854440212E0;1.123310566E1;1.317847013E0;1.376995332E1
1.291725286E0;-7.356134892E0;1.019701385E1;1.314257860E0;1.264195736E1
1.293894974E0;-6.842874527E0;9.237491608E0;1.338784218E0;1.157361336E1
1.296067825E0;-6.296712875E0;8.321041107E0;1.296311617E0;1.051516723E1
1.298238612E0;-5.817550182E0;7.566703320E0;1.258026481E0;9.627124175E0
1.300410294E0;-5.367101192E0;6.927221775E0;1.247258782E0;8.851431026E0
1.302581783E0;-4.873581409E0;6.349953175E0;1.207777262E0;8.095210126E0
1.304750961E0;-4.423730850E0;5.925227165E0;1.162911773E0;7.485324000E0
1.306920863E0;-4.040879250E0;5.567500114E0;1.136590719E0;6.972632293E0
1.309091610E0;-3.658027649E0;5.219942570E0;9.523434043E-1;6.444837055E0
1.311261084E0;-3.303889751E0;5.053641319E0;7.525427341E-1;6.084513016E0
1.313418647E0;-2.974278450E0;4.944767952E0;5.335994363E-1;5.794979789E0
1.315588496E0;-2.682354212E0;4.868795872E0;3.720839322E-1;5.571233599E0
1.317778682E0;-2.419741869E0;4.812564373E0;2.721835673E-1;5.393515593E0
1.319953487E0;-2.180459738E0;4.837090969E0;1.046859920E-1;5.306864693E0
1.322128689E0;-1.994417667E0;4.818546772E0;-1.100698411E-1;5.216148981E0
1.324295660E0;-1.826920033E0;4.819144726E0;-3.966103494E-1;5.169051408E0
1.326448838E0;-1.612164259E0;4.992026329E0;-4.833501875E-1;5.268114261E0
1.328633480E0;-1.488335729E0;5.111667156E0;-3.930211067E-1;5.338422047E0
1.330801876E0;-1.287936807E0;5.293521881E0;-3.553341627E-1;5.459525391E0
1.332978573E0;-1.149153113E0;5.413163185E0;-2.267199457E-1;5.538437549E0
1.335146286E0;-9.966106415E-1;5.513661385E0;-1.172483116E-1;5.604234274E0
1.337318468E0;-8.769695163E-1;5.614160061E0;-4.127619043E-2;5.682391437E0
1.339490516E0;-7.866404653E-1;5.743372440E0;1.112662554E-1;5.798060916E0
1.341659248E0;-7.196413875E-1;5.786443233E0;2.015953064E-1;5.834505094E0
1.343827898E0;-6.765705943E-1;5.872584820E0;2.153540403E-1;5.915351012E0
1.346000321E0;-6.239284873E-1;6.010770321E0;3.822534084E-1;6.055143621E0
1.348172064E0;-6.478567123E-1;6.053841114E0;5.491527915E-1;6.113123534E0
1.350344316E0;-7.537391186E-1;6.196812630E0;5.575276613E-1;6.267331691E0
1.352514269E0;-8.638089895E-1;6.382854462E0;6.664010882E-1;6.475421798E0
1.354686713E0;-1.036092162E0;6.606583118E0;8.422735929E-1;6.740167081E0
1.356855272E0;-1.222732425E0;6.735197544E0;8.650053740E-1;6.899724258E0
1.359020840E0;-1.466800332E0;6.959524632E0;9.595218897E-1;7.176849488E0
1.361198625E0;-1.658226132E0;7.088139057E0;9.966106415E-1;7.347425534E0
1.363368141E0;-1.916650891E0;7.211967468E0;9.481559992E-1;7.522301855E0
1.365539405E0;-2.275574446E0;7.603193760E0;8.548358679E-1;7.982326651E0
1.367707405E0;-2.610569477E0;7.750352383E0;8.871390224E-1;8.226180809E0
1.369875383E0;-2.993421078E0;8.017151833E0;9.332008362E-1;8.608493309E0
1.372060911E0;-3.371487141E0;8.283951759E0;1.060618639E0;9.006425161E0
1.374254748E0;-3.749552965E0;8.608778000E0;9.672985673E-1;9.439590701E0
1.376397041E0;-4.179663181E0;8.645866394E0;1.000199914E0;9.655101754E0
1.378566190E0;-4.590630054E0;8.620741844E0;1.043270707E0;9.822397264E0
1.380729937E0;-4.948955536E0;8.615358353E0;1.018744230E0;9.987712463E0
1.382909625E0;-5.245665550E0;8.624331474E0;1.076171994E0;1.015156375E1
1.385080350E0;-5.498706341E0;8.657232285E0;1.180858016E0;1.032365574E1
1.387250608E0;-5.718846321E0;8.704490662E0;1.275972724E0;1.049292463E1
1.389422330E0;-5.910272121E0;8.775676727E0;1.365703583E0;1.066812846E1
1.391594154E0;-6.062814236E0;8.785248756E0;1.332203984E0;1.075700142E1
1.393763405E0;-6.206383705E0;8.818149567E0;1.279561877E0;1.085892440E1
1.395934018E0;-6.316453457E0;8.818149567E0;1.183848977E0;1.091140891E1
1.398104602E0;-6.416952133E0;8.856434822E0;1.083350420E0;1.099033032E1
1.400273100E0;-6.536593437E0;9.014361382E0;8.530412912E-1;1.116751738E1
1.402435870E0;-6.747161865E0;8.832506180E0;7.148557901E-1;1.113770073E1
1.404621427E0;-6.870990276E0;8.669795036E0;6.586244106E-1;1.108195107E1
1.406790555E0;-6.932605267E0;8.526225090E0;6.783652306E-1;1.100989144E1
1.408964302E0;-6.975676060E0;8.382656097E0;6.933203340E-1;1.092747330E1
1.411128284E0;-7.042077065E0;8.210372925E0;6.508477330E-1;1.083626669E1
1.413291655E0;-7.013363361E0;8.072187424E0;6.329016089E-1;1.071205115E1
1.415470619E0;-6.946363926E0;8.048258781E0;5.132604837E-1;1.064377177E1
1.417644488E0;-6.903293133E0;7.938787460E0;2.943171859E-1;1.052456294E1
1.419817961E0;-6.865008354E0;7.652246952E0;2.003988922E-1;1.028228490E1
1.421987954E0;-6.806982040E0;7.408777237E0;1.010967568E-1;1.006157071E1
1.424157622E0;-6.759125710E0;7.317849636E0;5.383851007E-2;9.961907560E0
1.426331348E0;-6.677769661E0;7.208378315E0;-2.691925503E-2;9.826192051E0
1.428497730E0;-6.558128834E0;7.141379356E0;6.939185411E-2;9.696038786E0
1.430668394E0;-6.457630157E0;7.103692055E0;1.746760458E-1;9.601767534E0
1.432839090E0;-6.409773827E0;7.040880680E0;3.332005441E-1;9.527340860E0
1.435014688E0;-6.438487530E0;7.036095142E0;3.379862010E-1;9.543321811E0
1.437190418E0;-6.452844620E0;7.045666218E0;2.949153781E-1;9.558639611E0
1.439355559E0;-6.443273067E0;7.127022266E0;2.225325108E-1;9.610397230E0
1.441526692E0;-6.424130440E0;7.185048103E0;1.698904037E-1;9.639669647E0
1.443695851E0;-6.414559364E0;7.237690449E0;1.166501045E-1;9.671832407E0
1.445867492E0;-6.405586243E0;7.252047062E0;5.922235921E-2;9.676116421E0
1.448038716E0;-6.400800705E0;7.266404152E0;1.136590727E-2;9.683543161E0
1.450210143E0;-6.381658077E0;7.247261524E0;-5.503492057E-2;9.656675839E0
1.452380421E0;-6.343372822E0;7.228118896E0;-7.417750359E-2;9.617150505E0
1.454551736E0;-6.257231236E0;7.180262566E0;3.589234129E-2;9.524200833E0
1.456722157E0;-6.175875187E0;7.152146816E0;1.172483116E-1;9.450311401E0
1.458894663E0;-6.113661766E0;7.165905476E0;2.464607358E-1;9.422728075E0
1.461067484E0;-6.061019897E0;7.194619656E0;3.326023519E-1;9.413242720E0
1.463235443E0;-6.013163090E0;7.213762283E0;3.996013701E-1;9.399796694E0
1.465406351E0;-5.955735683E0;7.247261524E0;4.277170599E-1;9.390235834E0
1.467580525E0;-5.855237007E0;7.170691490E0;4.857429862E-1;9.270305448E0
1.469764393E0;-5.726024628E0;7.223333359E0;7.196413875E-1;9.245636083E0
1.471920665E0;-5.688337803E0;7.309474945E0;5.952146053E-1;9.281157867E0
1.474090912E0;-5.568696499E0;7.381857872E0;6.089733839E-1;9.266771548E0
1.476259022E0;-5.444269657E0;7.381857872E0;6.999006271E-1;9.199008568E0
1.478431457E0;-5.343770981E0;7.353144169E0;8.051848412E-1;9.125400818E0
1.480594584E0;-5.210371494E0;7.301100254E0;8.249256015E-1;9.007471248E0
1.482775147E0;-5.095515728E0;7.234101295E0;9.355936646E-1;8.897855786E0
1.484945556E0;-5.009374142E0;7.238886833E0;9.212366939E-1;8.851213980E0
1.487119110E0;-4.817948341E0;7.186842918E0;8.596215248E-1;8.694957534E0
1.489284138E0;-4.645665169E0;7.168298244E0;8.548358679E-1;8.584721833E0
1.491446370E0;-4.521238327E0;7.091728210E0;7.884350419E-1;8.447238296E0
1.493632294E0;-4.377668858E0;7.006184578E0;7.268198729E-1;8.293302967E0
1.495800619E0;-4.253840446E0;6.968497753E0;6.843472719E-1;8.192890251E0
1.497972820E0;-4.158127785E0;6.897311211E0;5.700899959E-1;8.073904335E0
1.500133210E0;-4.057629108E0;6.930810928E0;4.791627228E-1;8.045501291E0
1.502282288E0;-3.918845177E0;6.974479675E0;4.073780477E-1;8.010410173E0
1.504473582E0;-3.775874138E0;6.931408882E0;3.122633696E-1;7.899314085E0
1.506656138E0;-3.646661758E0;6.850651264E0;1.836491376E-1;7.762943496E0
1.508833954E0;-3.527020693E0;6.793821812E0;9.332008660E-2;7.655364029E0
1.511002564E0;-3.412165165E0;6.746563435E0;2.213360928E-2;7.560388825E0
1.513169526E0;-3.282952785E0;6.617949009E0;1.316052489E-2;7.387503047E0
1.515322134E0;-3.268595695E0;6.689733982E0;-1.016949639E-1;7.446247406E0
1.517488465E0;-3.183052301E0;6.771090031E0;-1.597209126E-1;7.483648370E0
1.519674104E0;-3.096910715E0;6.800402164E0;-2.745763958E-1;7.477413843E0
1.521831402E0;-3.053839922E0;6.776473522E0;-2.979064286E-1;7.438768709E0
1.524015301E0;-2.996412039E0;6.771687984E0;-3.218346536E-1;7.412005181E0
1.526181051E0;-2.886342287E0;6.734001160E0;-3.738785386E-1;7.336043115E0
1.528358094E0;-2.882154942E0;6.805785656E0;-4.606183469E-1;7.405248461E0
1.530527202E0;-2.824727058E0;6.877570629E0;-4.564309120E-1;7.449052953E0
1.532696768E0;-2.757728100E0;6.939784050E0;-5.042873621E-1;7.484649135E0
1.534867361E0;-2.719442844E0;6.949355125E0;-5.186443329E-1;7.480501186E0
1.537038056E0;-2.685943365E0;7.006783009E0;-4.187439680E-1;7.515626814E0
1.539209057E0;-2.724826813E0;7.188637257E0;-4.193421602E-1;7.699158046E0
1.541380597E0;-2.758326292E0;7.336394310E0;-4.109672904E-1;7.848562895E0
1.543551373E0;-2.787638426E0;7.546364307E0;-3.068794906E-1;8.050634588E0
1.545723675E0;-2.816352367E0;7.733004570E0;-1.932204217E-1;8.232164628E0
1.547894584E0;-2.778067112E0;7.832904816E0;-7.896314561E-2;8.311335026E0
1.550064343E0;-2.749353170E0;7.890332699E0;2.572284266E-2;8.355654051E0
1.552234692E0;-2.726023197E0;7.976474285E0;1.208375469E-1;8.430299295E0
1.554404583E0;-2.764308453E0;7.999804497E0;1.878365725E-1;8.466023611E0
1.556573508E0;-2.778665304E0;8.124231339E0;3.451646566E-1;8.593209782E0
1.558738303E0;-2.836092949E0;8.324629784E0;4.630111754E-1;8.806660184E0
1.560919741E0;-2.855235577E0;8.410173416E0;5.581258535E-1;8.899151171E0
1.563091820E0;-2.860619545E0;8.558527946E0;7.010970116E-1;9.051137045E0
1.565264854E0;-2.941975355E0;8.715856552E0;7.190431952E-1;9.227047065E0
1.567432314E0;-2.970689297E0;8.801998138E0;7.328019142E-1;9.318646080E0
1.569602887E0;-2.999403238E0;8.882756233E0;7.423732281E-1;9.404833656E0
1.571771537E0;-3.090330362E0;9.021539688E0;7.028916478E-1;9.562027858E0
1.573935255E0;-3.147758245E0;9.055039406E0;5.880361795E-1;9.604577407E0
1.576116447E0;-3.190829039E0;9.074181557E0;5.306084156E-1;9.633468024E0
1.578283795E0;-3.248256683E0;9.050253868E0;4.301098585E-1;9.625136937E0
1.580444898E0;-3.243471146E0;8.988039970E0;3.684946895E-1;9.562465996E0
1.582630607E0;-3.267399311E0;8.892925262E0;2.255235314E-1;9.476860179E0
1.584800336E0;-3.320041418E0;8.835497856E0;1.399801224E-1;9.439718842E0
1.586975903E0;-3.343371391E0;8.715856552E0;6.400800496E-2;9.335329920E0
1.589142143E0;-3.391227961E0;8.677571297E0;1.615155302E-2;9.316701753E0
1.591313530E0;-3.434298754E0;8.582456589E0;-9.332008660E-2;9.244548538E0
1.593484612E0;-3.515654564E0;8.591429710E0;-1.268195957E-1;9.283780194E0
1.595655836E0;-3.587439299E0;8.567501068E0;-2.027917206E-1;9.290474679E0
1.597828016E0;-3.730410576E0;8.500502586E0;-2.554338276E-1;9.286536153E0
1.599996981E0;-3.893122435E0;8.523832321E0;-2.937189937E-1;9.375414155E0
1.602155093E0;-4.065405846E0;8.576474190E0;-3.230310678E-1;9.496724872E0
1.604326388E0;-4.275974274E0;8.685946465E0;-3.140579760E-1;9.686498562E0
1.606510135E0;-4.510470867E0;8.790632248E0;-2.482553422E-1;9.883379659E0
1.608683933E0;-4.739583492E0;8.857032776E0;-2.865405083E-1;1.004951674E1
1.610855665E0;-4.988437176E0;9.085547447E0;-1.351944804E-1;1.036580703E1
1.613023817E0;-5.194219589E0;9.347561836E0;6.580262445E-3;1.069377729E1
1.615196109E0;-5.352744102E0;9.600603104E0;2.153540403E-1;1.099408144E1
1.617366621E0;-5.458028316E0;9.743574142E0;3.577269912E-1;1.117386588E1
1.619536543E0;-5.534598827E0;9.872187614E0;5.096712112E-1;1.132923816E1
1.621709751E0;-5.587240696E0;9.943374634E0;6.813562512E-1;1.142594434E1
1.623889978E0;-5.620740414E0;1.003430176E1;8.195417523E-1;1.153046327E1
1.626057855E0;-5.659025669E0;1.001934624E1;9.008977413E-1;1.154224793E1
1.628234042E0;-5.711667538E0;1.009113121E1;9.098708034E-1;1.163107648E1
1.630401767E0;-5.812166214E0;1.017188931E1;9.667003751E-1;1.175513155E1
1.632575819E0;-5.850451469E0;1.012403297E1;9.577272534E-1;1.173205300E1
1.634739709E0;-5.935994625E0;1.002353382E1;9.433703423E-1;1.168748091E1
1.636887913E0;-6.036493301E0;9.851250648E0;9.062815905E-1;1.158912150E1
1.639087935E0;-6.169893265E0;9.745966911E0;8.638089895E-1;1.156709211E1
1.641258437E0;-6.332605362E0;9.698110580E0;7.489534616E-1;1.160672955E1
1.643437656E0;-6.518647194E0;9.645467758E0;6.963114142E-1;1.166244653E1
1.645593326E0;-6.681358814E0;9.539586067E0;6.203392744E-1;1.166315046E1
1.647748377E0;-6.891329288E0;9.486943245E0;5.252245665E-1;1.173747726E1
1.649959354E0;-7.106683254E0;9.472586632E0;4.342973232E-1;1.185004044E1
1.652116511E0;-7.283751965E0;9.505488396E0;3.092723191E-1;1.197927384E1
1.654300124E0;-7.479963779E0;9.596415520E0;2.135594189E-1;1.216908610E1
1.656448053E0;-7.647460938E0;9.710672379E0;1.980060786E-1;1.236203961E1
1.658614466E0;-7.771289825E0;9.748359680E0;1.932204217E-1;1.246839188E1
1.660795455E0;-7.857431412E0;9.767501831E0;2.452643216E-1;1.253808099E1
1.662968429E0;-7.986643791E0;9.824331284E0;2.739782035E-1;1.266408419E1
1.665142734E0;-8.044071198E0;9.862616539E0;2.590230405E-1;1.272970461E1
1.667308629E0;-8.024929047E0;9.881759644E0;3.260220885E-1;1.273400763E1
1.669470932E0;-7.967501163E0;9.781260490E0;4.319044948E-1;1.262302155E1
1.671652735E0;-7.981858253E0;9.929615974E0;3.643072546E-1;1.274519731E1
1.673821457E0;-7.934599876E0;1.009232807E1;2.913261652E-1;1.284125508E1
1.675997593E0;-7.824530125E0;1.013539886E1;3.343969584E-1;1.280864564E1
1.678159042E0;-7.743772507E0;1.022154045E1;4.055834413E-1;1.283005845E1
1.680308782E0;-7.633702278E0;1.031725311E1;4.145565331E-1;1.284098826E1
1.682508682E0;-7.533204079E0;1.038903809E1;4.671986103E-1;1.284132200E1
1.684677596E0;-7.452445984E0;1.052782154E1;5.000999570E-1;1.290829491E1
1.686856674E0;-7.414160728E0;1.067617607E1;4.660021961E-1;1.300644736E1
1.689018275E0;-7.386045456E0;1.085324574E1;4.648058116E-1;1.313631055E1
1.691189876E0;-7.381857872E0;1.107757282E1;3.391826153E-1;1.331613646E1
1.693358027E0;-7.386643410E0;1.128335476E1;1.710868180E-1;1.348724828E1
1.695520848E0;-7.415955544E0;1.151306629E1;1.674975827E-2;1.369479363E1
1.697704849E0;-7.488338470E0;1.189113235E1;-2.099701911E-1;1.405412143E1
1.699872828E0;-7.531409264E0;1.203470135E1;-4.259224236E-1;1.420343522E1
1.702038630E0;-7.613363266E0;1.223091316E1;-6.035895348E-1;1.441953041E1
1.704219243E0;-7.670791149E0;1.241695499E1;-7.812566161E-1;1.461616126E1
1.706389582E0;-7.757531166E0;1.265145111E1;-8.638089895E-1;1.486555317E1
1.708562302E0;-7.848458290E0;1.287099266E1;-9.990034699E-1;1.510823476E1
1.710732722E0;-7.906484127E0;1.302413368E1;-1.100100160E0;1.527582305E1
1.712911017E0;-7.973483086E0;1.310548973E1;-1.138983607E0;1.538270383E1
1.715070827E0;-8.050053596E0;1.313420391E1;-1.196411371E0;1.545128071E1
1.717244583E0;-8.107481003E0;1.313360500E1;-1.196411371E0;1.548076964E1
1.719413468E0;-8.135597229E0;1.296670628E1;-1.214955688E0;1.535576541E1
1.721587357E0;-8.182855606E0;1.279920864E1;-1.166501045E0;1.523612787E1
1.723752194E0;-8.264211655E0;1.266042423E1;-1.146760225E0;1.516240730E1
1.725907080E0;-8.364111900E0;1.247856998E1;-1.155135155E0;1.506676521E1
1.728099005E0;-8.483752251E0;1.228714466E1;-1.235294700E0;1.498245404E1
1.730269649E0;-8.578866959E0;1.209093285E1;-1.287338614E0;1.488102335E1
1.732446804E0;-8.664410591E0;1.188574791E1;-1.381855130E0;1.477337260E1
1.734612809E0;-8.745766640E0;1.175653553E1;-1.414756417E0;1.472094078E1
1.736786394E0;-8.812167168E0;1.164646626E1;-1.548156261E0;1.468643096E1
1.738956885E0;-8.836095810E0;1.159442234E1;-1.700698733E0;1.467649804E1
1.741124773E0;-8.879166603E0;1.160877895E1;-1.882553220E0;1.473592057E1
1.743294624E0;-8.908478737E0;1.165184975E1;-2.069193363E0;1.481243252E1
1.745464809E0;-8.918049812E0;1.169970608E1;-2.207977057E0;1.487581586E1
1.747644772E0;-8.884550095E0;1.176670551E1;-2.274976015E0;1.491864957E1
1.749826931E0;-8.851051331E0;1.188634682E1;-2.304288149E0;1.499786965E1
1.751977241E0;-8.755936623E0;1.194915771E1;-2.333002090E0;1.499638940E1
1.754143042E0;-8.569295883E0;1.197787189E1;-2.294716835E0;1.490530015E1
1.756317124E0;-8.344968796E0;1.194018459E1;-2.184647083E0;1.473021368E1
1.758488684E0;-8.072187424E0;1.191147137E1;-2.012363911E0;1.452903880E1
1.760666705E0;-7.761120319E0;1.183549881E1;-1.801197290E0;1.426738702E1
1.762834541E0;-7.435696602E0;1.172602749E1;-1.561316729E0;1.397236610E1
1.765007147E0;-7.038487911E0;1.151127148E1;-1.378265858E0;1.356279101E1
1.767173408E0;-6.669992924E0;1.124447155E1;-1.232901812E0;1.313190744E1
1.769335507E0;-6.272784710E0;1.096750259E1;-1.073779106E0;1.268017913E1
1.771521482E0;-5.913861275E0;1.070967579E1;-9.140582681E-1;1.226810553E1
1.773691159E0;-5.507081509E0;1.033759212E1;-6.825526357E-1;1.173284432E1
1.775864763E0;-5.133800983E0;1.004626560E1;-3.696911037E-1;1.128804840E1
1.778031522E0;-4.755136967E0;9.721440315E0;-2.871387079E-2;1.082213259E1
1.780203133E0;-4.429712772E0;9.473184586E0;2.404786795E-1;1.046046899E1
1.782375537E0;-4.128217220E0;9.234500885E0;4.001995921E-1;1.012315878E1
1.784545295E0;-3.884149313E0;9.062815666E0;5.204389095E-1;9.873808806E0
1.786717119E0;-3.654438496E0;8.900702477E0;6.652047038E-1;9.644683644E0
1.788884752E0;-3.530011654E0;8.771489143E0;8.572286963E-1;9.493937282E0
1.791046659E0;-3.429512978E0;8.675776482E0;1.010369420E0;9.383576247E0
1.793229256E0;-3.385843992E0;8.632705688E0;1.115653515E0;9.339819581E0
1.795398404E0;-3.419343472E0;8.680562019E0;1.101296663E0;9.394515479E0
1.797573697E0;-3.491726398E0;8.747561455E0;1.115055323E0;9.484478532E0
1.799736549E0;-3.568296671E0;8.880961418E0;1.119242787E0;9.636229618E0
1.801893502E0;-3.649652719E0;8.995817184E0;1.056431174E0;9.765282311E0
1.804086607E0;-3.707080364E0;9.158528328E0;9.882357717E-1;9.929637249E0
1.806257210E0;-3.779463291E0;9.354142189E0;8.440681696E-1;1.012406884E1
1.808433317E0;-3.846462488E0;9.516854286E0;6.616154313E-1;1.028608400E1
1.810599770E0;-3.937389612E0;9.646066666E0;4.791627228E-1;1.042972847E1
1.812778126E0;-4.009772778E0;9.894919395E0;3.104687333E-1;1.068101579E1
1.814936999E0;-4.091726780E0;1.021496010E1;1.794617027E-1;1.100544612E1
1.817108793E0;-4.149752617E0;1.051585770E1;8.733802289E-2;1.130536765E1
1.819276223E0;-4.240679741E0;1.080778122E1;1.375873014E-2;1.160998229E1
1.821451068E0;-4.346562386E0;1.119003487E1;-9.810572863E-2;1.200496187E1
1.823632119E0;-4.447659016E0;1.149093246E1;-2.955136001E-1;1.232519890E1
1.825824043E0;-4.519443989E0;1.174457169E1;-4.642075896E-1;1.259268942E1
1.827966450E0;-4.654638290E0;1.230389404E1;-6.586244106E-1;1.317138005E1
1.830135974E0;-4.760520458E0;1.271007538E1;-8.805587292E-1;1.360088066E1
1.832300770E0;-4.904688358E0;1.315932846E1;-9.690931439E-1;1.407703928E1
1.834478687E0;-5.044070244E0;1.363191032E1;-8.955138922E-1;1.456274592E1
1.836651253E0;-5.163711071E0;1.408116341E1;-7.926225066E-1;1.501903210E1
1.838818327E0;-5.005784988E0;1.358943844E1;-1.153340459E0;1.452793566E1
1.840979938E0;-5.063212872E0;1.401894951E1;-5.868397355E-1;1.491681772E1
1.843162750E0;-5.097310543E0;1.440060520E1;-2.446661144E-1;1.527808452E1
1.845328459E0;-5.207978249E0;1.483490181E1;-1.316052489E-2;1.572251641E1
1.847489694E0;-5.341976643E0;1.520220089E1;1.806581169E-1;1.611447373E1
1.849676513E0;-5.524429321E0;1.553181171E1;2.745763958E-1;1.648732503E1
1.851843505E0;-5.687141418E0;1.573639774E1;4.402793646E-1;1.673832839E1
1.854009185E0;-5.816353798E0;1.589372635E1;5.066801906E-1;1.693213612E1
1.856188749E0;-5.873781204E0;1.600858116E1;5.724828243E-1;1.706176172E1
1.858363107E0;-5.945566177E0;1.607019615E1;7.154539824E-1;1.714971825E1
1.860535654E0;-6.017350674E0;1.605524254E1;9.212366939E-1;1.717055617E1
1.862701863E0;-5.935994625E0;1.598824310E1;1.194018483E0;1.709636306E1
1.864872619E0;-5.854638577E0;1.594038582E1;1.476371527E0;1.704559667E1
1.867039509E0;-5.739185333E0;1.586860180E1;1.739582062E0;1.696398883E1
1.869201812E0;-5.590830326E0;1.577767467E1;1.883749604E0;1.684461084E1
1.871386312E0;-5.399404526E0;1.561556053E1;1.903490424E0;1.663197450E1
1.873556346E0;-5.236692429E0;1.530090427E1;1.709671736E0;1.626233675E1
1.875730488E0;-5.021338463E0;1.490489197E1;1.396211982E0;1.578984016E1
1.877896759E0;-4.824528694E0;1.445623779E1;1.083350420E0;1.527849915E1
1.880058563E0;-4.670789719E0;1.407936859E1;8.087740541E-1;1.485594198E1
1.882239848E0;-4.532006264E0;1.376471233E1;5.760720372E-1;1.450304263E1
1.884411162E0;-4.335794449E0;1.345962715E1;3.391826153E-1;1.414481253E1
1.886585296E0;-4.129413605E0;1.305882931E1;7.836493850E-2;1.369639444E1
1.888752278E0;-4.052843571E0;1.282493114E1;-1.304088384E-1;1.345070282E1
1.890919698E0;-3.842274904E0;1.248156071E1;-2.285145670E-1;1.306157161E1
1.893098511E0;-3.717249870E0;1.223330593E1;-3.852444589E-1;1.279140860E1
1.895269286E0;-3.607180119E0;1.200897884E1;-4.169493318E-1;1.254596222E1
1.897439351E0;-3.530609846E0;1.187079334E1;-3.206382394E-1;1.238885585E1
1.899607941E0;-3.472583771E0;1.178465176E1;-1.531406492E-1;1.228659054E1
1.901775920E0;-3.439084291E0;1.169851017E1;-4.725824669E-2;1.219363253E1
1.903937795E0;-3.386442184E0;1.157408333E1;2.033899166E-2;1.205934531E1
1.906122782E0;-3.352942705E0;1.147358418E1;9.750752151E-2;1.195386408E1
1.908292653E0;-3.333201885E0;1.136830044E1;1.740778536E-1;1.184815567E1
1.910468059E0;-3.314059258E0;1.131565857E1;2.656033039E-1;1.179396722E1
1.912632976E0;-3.270988464E0;1.125823021E1;4.043870270E-1;1.173075624E1
1.914797007E0;-3.242274761E0;1.121994495E1;5.240281820E-1;1.169077054E1
1.916977773E0;-3.194418192E0;1.117208862E1;6.580262184E-1;1.163842216E1
1.919147197E0;-3.141776085E0;1.110030460E1;7.160521746E-1;1.155855743E1
1.921320842E0;-3.126821041E0;1.097587776E1;6.687939167E-1;1.143215587E1
1.923496929E0;-3.107678413E0;1.082333469E1;5.838487148E-1;1.127577573E1
1.925688508E0;-3.098107100E0;1.057029438E1;4.414757788E-1;1.102380568E1
1.927834138E0;-3.169293642E0;1.043150997E1;3.326023519E-1;1.090740330E1
1.930003755E0;-3.217149973E0;1.026461124E1;2.327020019E-1;1.075948178E1
1.932164542E0;-3.245265722E0;1.004925728E1;2.578266263E-1;1.056341782E1
1.934330699E0;-3.249453068E0;9.838688850E0;3.403790295E-1;1.036699578E1
1.936513530E0;-3.287738323E0;9.594620705E0;4.468596280E-1;1.015212555E1
1.938687532E0;-3.320639610E0;9.384650230E0;4.522434771E-1;9.965080608E0
1.940861025E0;-3.334398270E0;9.183652878E0;5.156532526E-1;9.783843329E0
1.943029014E0;-3.320041418E0;8.949156761E0;5.934200287E-1;9.563588714E0
1.945194581E0;-3.300300598E0;8.776873589E0;6.897311211E-1;9.402192460E0
1.947353384E0;-3.233301640E0;8.576474190E0;8.105686903E-1;9.201476546E0
1.949540081E0;-3.227917671E0;8.380263329E0;8.685946465E-1;9.022345738E0
1.951711611E0;-3.203989506E0;8.231907845E0;9.463613629E-1;8.883999963E0
1.953888237E0;-3.203391314E0;7.978867054E0;9.906286001E-1;8.654789448E0
1.956055869E0;-3.208176851E0;7.816154957E0;9.960124493E-1;8.507450724E0
1.958228171E0;-3.193221807E0;7.629515171E0;1.049850941E0;8.337167040E0
1.960398724E0;-3.193221807E0;7.453044415E0;1.007378340E0;8.170639368E0
1.962568952E0;-3.245265722E0;7.280761242E0;1.027717352E0;8.037253065E0
1.964739412E0;-3.269193888E0;7.113263607E0;1.042672515E0;7.897677747E0
1.966902732E0;-3.287738323E0;7.051050186E0;1.086341500E0;7.855359308E0
1.969053652E0;-3.330809116E0;7.031907558E0;1.153340459E0;7.865888856E0
1.971253034E0;-3.292523861E0;6.993622303E0;1.325623751E0;7.842751087E0
1.973422885E0;-3.230310678E0;6.974479675E0;1.473380566E0;7.826181963E0
1.975601361E0;-3.086741209E0;6.763911247E0;1.479960799E0;7.580814641E0
1.977758577E0;-2.985644341E0;6.439683914E0;1.429113269E0;7.240577724E0
1.979909649E0;-2.928216696E0;6.276971817E0;1.381855130E0;7.062885516E0
1.982108635E0;-2.856431961E0;6.162714481E0;1.330409408E0;6.921578037E0
1.984274437E0;-2.688934565E0;5.971887112E0;1.341177106E0;6.685249494E0
1.986442426E0;-2.535195589E0;5.809175014E0;1.442273855E0;6.500298831E0
1.988620395E0;-2.362912416E0;5.666203976E0;1.562513232E0;6.334877282E0
1.990792982E0;-2.190629244E0;5.499304771E0;1.625923038E0;6.138797535E0
1.992956342E0;-2.061416626E0;5.332405090E0;1.645663738E0;5.949133693E0
1.995133944E0;-1.908276081E0;5.112864017E0;1.618744493E0;5.692383490E0
1.997304629E0;-1.798206210E0;4.940580368E0;1.619342685E0;5.501377162E0
1.999475029E0;-1.668395638E0;4.764110088E0;1.625324726E0;5.303015124E0
2.001632052E0;-1.563111424E0;4.558925152E0;1.612164259E0;5.081947409E0
2.003812188E0;-1.433898926E0;4.320241451E0;1.561316729E0;4.812303217E0
2.005982119E0;-1.342373490E0;4.100699902E0;1.533799291E0;4.579328175E0
2.008156761E0;-1.251446247E0;3.876372576E0;1.520638824E0;4.347956358E0
2.010327080E0;-1.226919770E0;3.704089403E0;1.521835208E0;4.188268476E0
2.012500166E0;-1.169492126E0;3.546761274E0;1.555932879E0;4.045757592E0
2.014657860E0;-1.131206870E0;3.384049416E0;1.623530149E0;3.920110914E0
2.016833011E0;-1.068993568E0;3.273979664E0;1.604985833E0;3.799693358E0
2.019009281E0;-9.870393276E-1;3.183650494E0;1.576870084E0;3.687329164E0
2.021163679E0;-9.296116233E-1;3.073580742E0;1.591825247E0;3.583989950E0
2.023344659E0;-8.578268886E-1;2.983251572E0;1.587637782E0;3.486581512E0
2.025512688E0;-8.003991842E-1;2.906681299E0;1.640878081E0;3.432479557E0
2.027688846E0;-6.951149702E-1;2.854039192E0;1.698305845E0;3.393076374E0
2.029857578E0;-6.089733839E-1;2.778067112E0;1.813759565E0;3.373163089E0
2.032027174E0;-5.324030519E-1;2.749353170E0;1.904686809E0;3.386772461E0
2.034189466E0;-4.606183469E-1;2.711068153E0;2.019542217E0;3.411833900E0
2.036366926E0;-3.553341627E-1;2.667997360E0;2.111067772E0;3.420684057E0
2.038538690E0;-2.261217386E-1;2.620140791E0;2.154138565E0;3.399497281E0
2.040704940E0;-1.064806059E-1;2.558525562E0;2.154736757E0;3.346682188E0
2.042884322E0;-3.948157281E-2;2.491526604E0;2.078764677E0;3.245077225E0
2.045051913E0;-1.555334684E-2;2.444268227E0;1.987837434E0;3.150585141E0
2.047218184E0;4.187439755E-2;2.382653236E0;1.816750646E0;2.996560164E0
2.049398299E0;1.136590764E-1;2.363510609E0;1.615753531E0;2.865267921E0
2.051569594E0;1.848455518E-1;2.335394859E0;1.415354609E0;2.737054201E0
2.053744419E0;2.087737769E-1;2.302493572E0;1.195813060E0;2.602889167E0
2.055906976E0;2.518445849E-1;2.255235434E0;9.954141974E-1;2.477975379E0
2.058070469E0;2.901297510E-1;2.216950178E0;8.524430394E-1;2.392844019E0
2.060251326E0;2.949153781E-1;2.174477577E0;6.233302951E-1;2.281198911E0
2.062422144E0;3.571287692E-1;2.155933142E0;4.079762697E-1;2.223068444E0
2.064594649E0;4.528416991E-1;2.074577332E0;2.656033039E-1;2.139972389E0
2.066764612E0;5.389832854E-1;1.979462504E0;2.662015259E-1;2.068728605E0
2.068936792E0;5.150550604E-1;1.965105653E0;1.417747438E-1;2.036423831E0
2.071107233E0;5.246263742E-1;1.922633052E0;4.187439755E-2;1.993365032E0
2.073277725E0;5.868397355E-1;1.817348838E0;9.930214286E-2;1.912328055E0
2.075448664E0;5.820540786E-1;1.788634896E0;-1.016949583E-2;1.880985157E0
2.077617090E0;5.916253924E-1;1.735992789E0;-6.221338734E-2;1.835091844E0
2.079780553E0;6.681957245E-1;1.636092424E0;6.699903309E-2;1.768551050E0
2.081962173E0;6.927221417E-1;1.497308731E0;1.585244983E-1;1.657385718E0
2.084131749E0;6.975077987E-1;1.310668588E0;2.392822644E-3;1.484713778E0
2.086298456E0;7.597211599E-1;1.239482164E0;-1.196411345E-2;1.453834728E0
2.088474625E0;7.890332937E-1;1.124028444E0;2.709871531E-1;1.399802672E0
2.090646001E0;8.464609981E-1;9.613165259E-1;4.869394004E-1;1.370304953E0
2.092819310E0;8.943174481E-1;8.039883971E-1;6.167500615E-1;1.351510888E0
2.094988041E0;8.901300430E-1;7.028916478E-1;7.698906660E-1;1.370809906E0
2.097158564E0;9.284151793E-1;5.545366406E-1;9.236295223E-1;1.422166349E0
2.099330378E0;9.720842242E-1;4.157529473E-1;1.173081279E0;1.579214342E0
2.101502620E0;9.098708034E-1;3.296113312E-1;1.345364571E0;1.657261095E0
2.103664241E0;9.146564603E-1;2.434697002E-1;1.475175142E0;1.752716644E0
2.105833684E0;9.152546525E-1;1.477568001E-1;1.609173179E0;1.857137978E0
2.108002396E0;8.673982024E-1;4.187439755E-2;1.796411633E0;1.995301447E0
2.110173345E0;8.392825127E-1;-5.862415582E-2;2.054836512E0;2.220401994E0
2.112342942E0;7.962117195E-1;-6.400800496E-2;2.203191519E0;2.343523628E0
2.114517644E0;7.722834945E-1;-7.178467698E-3;2.465205431E0;2.583352694E0
2.116702123E0;6.669993401E-1;6.879365444E-2;2.746960402E0;2.827615981E0
2.118859706E0;5.808576941E-1;1.495514214E-1;3.090330362E0;3.147999847E0
2.121030585E0;4.899304509E-1;2.446661144E-1;3.396013498E0;3.439883869E0
2.123197505E0;3.565305769E-1;2.913261652E-1;3.614956856E0;3.644159444E0
2.125372076E0;2.081755698E-1;4.486542344E-1;3.843471289E0;3.875164414E0
2.127542914E0;1.124626622E-1;6.771687865E-1;4.305884361E0;4.360257509E0
2.129713589E0;-9.870393574E-2;9.487541914E-1;4.462016106E0;4.562835161E0
2.131884976E0;-3.571287692E-1;1.254437327E0;4.374079704E0;4.564397794E0
2.134056403E0;-6.729813814E-1;1.564307809E0;4.386641979E0;4.705591431E0
2.136228257E0;-9.457631707E-1;1.898106575E0;4.676173687E0;5.134576603E0
2.138399114E0;-1.261615753E0;2.236690998E0;4.783850670E0;5.429520067E0
2.140570299E0;-1.673779488E0;2.589632273E0;4.776672363E0;5.685449142E0
2.142743893E0;-2.114058733E0;2.932404041E0;4.884349346E0;6.076603190E0
2.144910864E0;-2.534597397E0;3.251846075E0;5.154737949E0;6.600758304E0
2.147082180E0;-2.979662418E0;3.599403381E0;5.415555954E0;7.152785410E0
2.149253048E0;-3.544368505E0;3.975674868E0;5.527420521E0;7.675996116E0
2.151425005E0;-4.137788773E0;4.385445595E0;5.548357487E0;8.193759808E0
2.153600766E0;-4.683351994E0;4.871787071E0;5.717649937E0;8.852096699E0
2.155777268E0;-5.286343575E0;5.319244862E0;5.929414749E0;9.560217234E0
2.157934861E0;-5.908477306E0;5.747560024E0;6.132206440E0;1.027368026E1
2.160120245E0;-6.607181549E0;6.238687038E0;6.272186279E0;1.104157528E1
2.162288347E0;-7.271788120E0;6.729215622E0;6.379265308E0;1.178372909E1
2.164463690E0;-7.884948730E0;7.344171047E0;6.619145870E0;1.264604116E1
2.166628384E0;-8.440083504E0;7.978269100E0;6.944569588E0;1.353199298E1
2.168792253E0;-8.933603287E0;8.593224525E0;7.241877556E0;1.435609856E1
2.170974698E0;-9.264410973E0;9.352347374E0;7.486543655E0;1.514410935E1
2.173145190E0;-9.681360245E0;1.019222832E1;7.916055679E0;1.613301558E1
2.175318091E0;-1.002173901E1;1.105125141E1;8.513663292E0;1.717695762E1
2.177486365E0;-1.035254669E1;1.190010548E1;8.982057571E0;1.815117328E1
2.179657305E0;-1.069352436E1;1.276869965E1;9.550353050E0;1.919896865E1
2.181828234E0;-1.114875889E1;1.369472218E1;9.745966911E0;2.016988129E1
2.184001727E0;-1.152263737E1;1.445863056E1;9.990034103E0;2.101485073E1
2.186181322E0;-1.182951736E1;1.526979733E1;1.037707329E1;2.192687487E1
2.188342089E0;-1.221775246E1;1.600439453E1;1.084606647E1;2.287031433E1
2.190511849E0;-1.253898907E1;1.663849258E1;1.139163017E1;2.374520836E1
2.192680479E0;-1.285543919E1;1.722054672E1;1.160818100E1;2.442456575E1
2.194852506E0;-1.298465252E1;1.765065575E1;1.176371479E1;2.487030026E1
2.197024198E0;-1.296610737E1;1.798983955E1;1.193839073E1;2.518490502E1
2.199196317E0;-1.296191978E1;1.820938110E1;1.184207916E1;2.529481693E1
2.201367551E0;-1.282373428E1;1.827279091E1;1.143529987E1;2.508204800E1
2.203539152E0;-1.252702427E1;1.810170364E1;1.096331501E1;2.459252504E1
2.205710600E0;-1.210110188E1;1.780200195E1;1.056431198E1;2.397816982E1
2.207881254E0;-1.157468128E1;1.728814316E1;9.993623734E0;2.308085042E1
2.210051236E0;-1.096690464E1;1.663490295E1;9.415159225E0;2.203720075E1
2.212219369E0;-1.028255749E1;1.585843182E1;8.855836868E0;2.087215118E1
2.214383003E0;-9.569496155E0;1.507179165E1;8.368298531E0;1.971706318E1
2.216564237E0;-8.807980537E0;1.426122284E1;7.966903210E0;1.855894784E1
2.218735359E0;-8.047062874E0;1.348415375E1;7.651648521E0;1.746783754E1
2.220909025E0;-7.342974663E0;1.276929760E1;7.402794838E0;1.648561826E1
2.223079019E0;-6.587440968E0;1.208794212E1;6.838686943E0;1.537141381E1
2.225250781E0;-5.807380676E0;1.141615677E1;6.522834301E0;1.437364508E1
2.227419594E0;-5.146363258E0;1.075813103E1;6.273382664E0;1.347507952E1
2.229587532E0;-4.462016106E0;1.013420200E1;5.947958946E0;1.256940148E1
2.231748289E0;-3.820739508E0;9.595218658E0;5.846263885E0;1.186781669E1
2.233919982E0;-3.236890793E0;9.137591362E0;5.810969830E0;1.130223023E1
2.236094592E0;-2.691327333E0;8.780462265E0;5.708078384E0;1.081304394E1
2.238277027E0;-2.246860504E0;8.523832321E0;5.547759533E0;1.041545656E1
2.240449217E0;-1.859223247E0;8.328219414E0;5.462814331E0;1.013204274E1
2.242619720E0;-1.567298889E0;8.252246857E0;5.539982796E0;1.006217737E1
2.244785205E0;-1.347159147E0;8.219346046E0;5.688337803E0;1.008611294E1
2.246952066E0;-1.208973646E0;8.257631302E0;5.970690727E0;1.026154178E1
2.249144601E0;-1.141974568E0;8.309675217E0;6.299703598E0;1.049004640E1
2.251316120E0;-1.103689432E0;8.462217331E0;6.719644070E0;1.086189988E1
2.253488413E0;-1.237687469E0;8.633902550E0;6.608976364E0;1.094324961E1
2.255651559E0;-1.319043517E0;8.991030693E0;7.338188648E0;1.168021923E1
2.257813373E0;-1.567897081E0;9.242876053E0;8.019545555E0;1.233702435E1
2.259997517E0;-1.874178290E0;9.500103951E0;8.486145973E0;1.287552689E1
2.262166533E0;-2.242672920E0;9.818947792E0;8.866603851E0;1.341856853E1
2.264338906E0;-2.635095835E0;1.008993530E1;9.165707588E0;1.388382945E1
2.266506703E0;-3.079562664E0;1.036570740E1;9.436694145E0;1.435210063E1
2.268681925E0;-3.624528170E0;1.055055332E1;9.726225853E0;1.480036652E1
2.270865030E0;-4.179663181E0;1.072163963E1;9.835099220E0;1.513777782E1
2.273023366E0;-4.604987144E0;1.087777138E1;1.013958549E1;1.556737007E1
2.275195504E0;-5.198407173E0;1.109671497E1;9.870393753E0;1.573484011E1
2.277361459E0;-5.599802971E0;1.120618629E1;9.659226418E0;1.581888301E1
2.279532531E0;-5.992226124E0;1.134915733E1;9.428318977E0;1.592492841E1
2.281706990E0;-6.370292187E0;1.155434227E1;9.188439369E0;1.607827310E1
2.283876546E0;-6.657430649E0;1.174995518E1;9.062815666E0;1.626399266E1
2.286049081E0;-6.920641422E0;1.205504036E1;9.108279228E0;1.661866500E1
2.288224863E0;-7.127022266E0;1.227936745E1;9.083154678E0;1.685470291E1
2.290409556E0;-7.361518860E0;1.261855030E1;8.947361946E0;1.713111372E1
2.292550171E0;-7.567899704E0;1.310668564E1;8.481359482E0;1.734911447E1
2.294734883E0;-7.722237110E0;1.382393456E1;7.922635555E0;1.770599522E1
2.296898702E0;-7.877171993E0;1.476132298E1;7.411170006E0;1.829950643E1
2.299077148E0;-8.155936241E0;1.583211136E1;6.693323135E0;1.902565690E1
2.301237814E0;-8.383254051E0;1.727079582E1;6.446264267E0;2.025126317E1
2.303388651E0;-8.567501068E0;1.875733757E1;6.256632805E0;2.154959956E1
2.305588226E0;-8.660223007E0;2.021037865E1;5.847460270E0;2.275195946E1
2.307759847E0;-8.648259163E0;2.150190353E1;5.401198864E0;2.379699963E1
2.309937511E0;-8.425726891E0;2.257867432E1;4.941178799E0;2.460090761E1
2.312104920E0;-7.958528042E0;2.340240288E1;4.402195454E0;2.510756766E1
2.314285522E0;-7.213762283E0;2.377747917E1;3.827319860E0;2.514070921E1
2.316442749E0;-6.305685997E0;2.371347046E1;3.274577856E0;2.475506448E1
2.318613119E0;-5.305486202E0;2.304228401E1;2.743371248E0;2.380380478E1
2.320780864E0;-4.266402721E0;2.173999023E1;2.335993052E0;2.227748260E1
2.322954926E0;-3.279363394E0;2.004587173E1;1.972882271E0;2.040792646E1
2.325124125E0;-2.373081923E0;1.813161278E1;1.687538147E0;1.836395068E1
2.327297180E0;-1.528415442E0;1.607797432E1;1.479362607E0;1.621807096E1
2.329464448E0;-7.226324677E-1;1.398186111E1;1.343569875E0;1.406484333E1
2.331627290E0;2.153540403E-2;1.186600780E1;1.130608678E0;1.191976850E1
2.333810579E0;7.274180651E-1;9.817152977E0;9.846464992E-1;9.893187471E0
2.335982250E0;1.342373490E0;7.859225750E0;8.279166222E-1;8.015911795E0
2.338157156E0;1.794616938E0;6.067600250E0;6.658028960E-1;6.362367189E0
2.340323569E0;2.132004976E0;4.343571186E0;4.031906128E-1;4.855370072E0
2.342495291E0;2.382653236E0;2.834298372E0;8.673982322E-2;3.703755865E0
2.344662862E0;2.547159672E0;1.501496196E0;-2.362912297E-1;2.966200729E0
2.346820100E0;2.615355253E0;4.025924206E-1;-4.307080805E-1;2.680983627E0
2.349008464E0;2.712264538E0;-3.810569942E-1;-5.653043389E-1;2.796632323E0
2.351178428E0;2.808575630E0;-9.116654396E-1;-5.527420044E-1;3.004122945E0
2.353353721E0;2.904886723E0;-1.207777262E0;-4.223332107E-1;3.174186215E0
2.355518322E0;3.019742250E0;-1.346560955E0;-2.446661144E-1;3.315408146E0
2.357682516E0;3.153740168E0;-1.346560955E0;3.290131316E-2;3.429341912E0
2.359863445E0;3.235096216E0;-1.241874933E0;3.050848842E-1;3.478674699E0
2.362034975E0;3.306880951E0;-1.074377418E0;6.478567123E-1;3.536872457E0
2.364209148E0;3.315854073E0;-9.170492887E-1;8.811569214E-1;3.551380738E0
2.366376151E0;3.334996462E0;-7.262216806E-1;1.181456208E0;3.611846910E0
2.368547416E0;3.248854876E0;-5.976074338E-1;1.314257860E0;3.555202719E0
2.370717846E0;3.143570662E0;-4.259224236E-1;1.408774376E0;3.471036107E0
2.372888460E0;2.952144861E0;-2.638086975E-1;1.422533035E0;3.287606203E0
2.375054312E0;2.674577475E0;-9.690931439E-2;1.344766378E0;2.995188257E0
2.377205202E0;2.353939295E0;5.084748194E-2;1.185643673E0;2.636165129E0
2.379387107E0;1.966302037E0;3.032902777E-1;1.002592683E0;2.227896044E0
2.381561678E0;1.559522152E0;5.994020700E-1;7.519445419E-1;1.832160686E0
2.383751202E0;1.051645517E0;1.024128079E0;5.150550604E-1;1.555660095E0
2.385915559E0;4.965106845E-1;1.539781332E0;3.062812984E-1;1.646589701E0
2.388086183E0;-2.093719877E-2;2.155334949E0;1.136590727E-2;2.155466607E0
2.390248833E0;-5.766702294E-1;2.795415163E0;-3.080759048E-1;2.870854446E0
2.392415692E0;-1.141376376E0;3.473181963E0;-6.227321029E-1;3.708574962E0
2.394599978E0;-1.692323804E0;4.180261135E0;-9.613165259E-1;4.611146547E0
2.396773114E0;-2.253440619E0;4.987240791E0;-1.368096352E0;5.641121605E0
2.398944959E0;-2.823530674E0;5.804389477E0;-1.817348838E0;6.705670695E0
2.401107221E0;-3.412763357E0;6.683153629E0;-2.309672117E0;7.851501860E0
2.403264672E0;-4.002593994E0;7.524230957E0;-2.878565550E0;8.995607250E0
2.405454521E0;-4.577469826E0;8.412566185E0;-3.333201885E0;1.014074626E1
2.407624748E0;-5.181657314E0;9.334401131E0;-3.759124279E0;1.131864092E1
2.409800225E0;-5.775675774E0;1.025623608E1;-4.066003799E0;1.245316008E1
2.411963555E0;-6.312864304E0;1.117747307E1;-4.257429600E0;1.352456531E1
2.414126580E0;-6.849454880E0;1.210409355E1;-4.258028030E0;1.454492749E1
2.416311241E0;-7.347760201E0;1.290568924E1;-4.119244099E0;1.541150760E1
2.418480634E0;-7.889136314E0;1.378864002E1;-3.900300980E0;1.635779365E1
2.420653984E0;-8.401798248E0;1.453759384E1;-3.589233875E0;1.717016157E1
2.422818200E0;-8.919246674E0;1.529552078E1;-3.268595695E0;1.800526687E1
2.424976636E0;-9.474381447E0;1.591107464E1;-3.000001431E0;1.875969639E1
2.427164493E0;-9.952945709E0;1.634477234E1;-2.787638426E0;1.933865660E1
2.429330407E0;-1.032622623E1;1.653500175E1;-2.636292458E0;1.967199200E1
2.431486067E0;-1.057448101E1;1.652004814E1;-2.550150633E0;1.977965893E1
2.433649805E0;-1.069890785E1;1.635195160E1;-2.506481647E0;1.970115227E1
2.435848433E0;-1.073659515E1;1.609891129E1;-2.423929453E0;1.950191924E1
2.438024560E0;-1.066899776E1;1.576870155E1;-2.255235434E0;1.917199908E1
2.440196801E0;-1.036211872E1;1.520040607E1;-1.960319996E0;1.850050550E1
2.442361139E0;-9.997213364E0;1.442572975E1;-1.534995675E0;1.761823390E1
2.444531568E0;-9.550951958E0;1.344646645E1;-1.070788145E0;1.652799838E1
2.446703545E0;-9.099904060E0;1.233739376E1;-5.341976285E-1;1.533965142E1
2.448876183E0;-8.629714966E0;1.116670513E1;4.606183618E-2;1.411273912E1
2.451047459E0;-8.067999840E0;1.010608673E1;6.687939167E-1;1.294885693E1
2.453216649E0;-7.493124008E0;9.198010445E0;1.166501045E0;1.192103302E1
2.455385247E0;-6.827321053E0;8.438887596E0;1.591825247E0;1.097091811E1
2.457555770E0;-6.137589931E0;7.799405575E0;1.877767563E0;1.010082910E1
2.459727919E0;-5.443671703E0;7.341778278E0;2.085943222E0;9.374776212E0
2.461898635E0;-4.769493580E0;6.979265213E0;2.217548370E0;8.739321066E0
2.464071731E0;-4.195216179E0;6.703492641E0;2.219941139E0;8.213695334E0
2.466243127E0;-3.683152199E0;6.336792469E0;2.193620205E0;7.650654777E0
2.468409774E0;-3.209373474E0;6.065207005E0;2.152343988E0;7.191620036E0
2.470572503E0;-2.840878725E0;5.793622017E0;2.034497499E0;6.765783626E0
2.472755172E0;-2.472982168E0;5.612963676E0;1.916650891E0;6.426083774E0
2.474923435E0;-2.114058733E0;5.499304771E0;1.859821439E0;6.178230578E0
2.477080673E0;-1.841875196E0;5.404190063E0;1.789233088E0;5.983237378E0
2.479242192E0;-1.612164259E0;5.342574596E0;1.612762451E0;5.808887987E0
2.481440709E0;-1.415952802E0;5.319244862E0;1.402792215E0;5.680414970E0
2.483614507E0;-1.263410330E0;5.296513081E0;1.140179992E0;5.563206529E0
2.485788670E0;-1.138983607E0;5.206183910E0;8.590233326E-1;5.398106673E0
2.487954859E0;-1.057627559E0;5.163711071E0;5.102694035E-1;5.295551241E0
2.490126398E0;-1.048056364E0;5.164309502E0;2.380858511E-1;5.274959682E0
2.492264775E0;-1.058225870E0;5.274379253E0;-2.512463741E-2;5.379549214E0
2.494465712E0;-1.144367456E0;5.389235020E0;-3.367897868E-1;5.519679188E0
2.496634404E0;-1.264008522E0;5.508875847E0;-5.718846321E-1;5.680887490E0
2.498814804E0;-1.427318692E0;5.681159019E0;-7.974081635E-1;5.911739696E0
2.500979884E0;-1.566102386E0;5.862415314E0;-9.463613629E-1;6.141350814E0
2.503149318E0;-1.757528186E0;6.010770321E0;-1.067198873E0;6.352730012E0
2.505302546E0;-1.958525300E0;6.196812630E0;-1.120439172E0;6.594823125E0
2.507464696E0;-2.173879385E0;6.392425537E0;-1.140778184E0;6.847644171E0
2.509636164E0;-2.446661234E0;6.601797581E0;-1.128215909E0;7.130410481E0
2.511811377E0;-2.752942562E0;6.802196503E0;-1.158126116E0;7.428985537E0
2.513982519E0;-3.020938635E0;6.954739094E0;-1.164108157E0;7.671350201E0
2.516155136E0;-3.269792080E0;7.101897717E0;-1.074377418E0;7.891943883E0
2.518327408E0;-3.504288673E0;7.201797962E0;-9.553344250E-1;8.065890953E0
2.520497788E0;-3.705285788E0;7.382455826E0;-7.561319470E-1;8.294668909E0
2.522667110E0;-3.925425529E0;7.534998417E0;-6.137589812E-1;8.518325353E0
2.524837011E0;-4.102494240E0;7.668398380E0;-4.899304509E-1;8.710615624E0
2.527009649E0;-4.278964996E0;7.701299667E0;-4.091726840E-1;8.819692755E0
2.529180893E0;-4.489533424E0;7.815557003E0;-3.720839322E-1;9.020936098E0
2.531353338E0;-4.695316315E0;7.939385414E0;-3.583251834E-1;9.230830569E0
2.533534685E0;-4.862813950E0;7.967501163E0;-3.302095234E-1;9.340078834E0
2.535707688E0;-5.020142078E0;7.986643791E0;-2.919243574E-1;9.437877164E0
2.537877355E0;-5.178068161E0;7.966903210E0;-2.297109663E-1;9.504562260E0
2.540044643E0;-5.355136871E0;8.004590034E0;-1.537388563E-1;9.631956612E0
2.542215053E0;-5.484349728E0;8.009375572E0;-1.728814393E-1;9.708659896E0
2.544387517E0;-5.579464436E0;8.018348694E0;-1.495514214E-1;9.769682942E0
2.546562353E0;-5.780461311E0;7.980063438E0;-2.494517565E-1;9.856843898E0
2.548729213E0;-5.943173409E0;7.970492363E0;-4.408775866E-1;9.952106898E0
2.550900509E0;-6.038288116E0;7.932207108E0;-5.222335458E-1;9.982663014E0
2.553071031E0;-6.129215240E0;7.884350777E0;-5.790630579E-1;1.000327850E1
2.555242478E0;-6.191428661E0;7.836493969E0;-6.412764788E-1;1.000778008E1
2.557410538E0;-6.272784710E0;7.759923935E0;-6.741777658E-1;1.000093811E1
2.559584052E0;-6.377470493E0;7.716853142E0;-8.033902049E-1;1.004327577E1
2.561754473E0;-6.406184196E0;7.654639721E0;-7.884350419E-1;1.001270868E1
2.563926480E0;-6.358327866E0;7.597211838E0;-6.927221417E-1;9.931053565E0
2.566097154E0;-6.248258114E0;7.568498135E0;-4.247260094E-1;9.823608586E0
2.568268602E0;-6.114260197E0;7.543971539E0;-1.519442350E-1;9.711785180E0
2.570440680E0;-6.056832314E0;7.625327587E0;-8.554340899E-2;9.738488392E0
2.572611966E0;-5.976074696E0;7.668996811E0;-1.573280841E-1;9.723771541E0
2.574781022E0;-5.861218929E0;7.649854183E0;-2.003988922E-1;9.639207233E0
2.576951107E0;-5.751149178E0;7.621738434E0;-2.333002090E-1;9.550970768E0
2.579120724E0;-5.636293888E0;7.640881062E0;-2.285145670E-1;9.497530789E0
2.581294288E0;-5.497509956E0;7.603193760E0;-1.471585929E-1;9.383646771E0
2.583464577E0;-5.368896008E0;7.617550850E0;-8.973085135E-2;9.319880735E0
2.585635078E0;-5.196612358E0;7.655836105E0;3.948157281E-2;9.253008444E0
2.587807035E0;-4.971687317E0;7.631907940E0;1.974078715E-1;9.110579754E0
2.589979052E0;-4.828716278E0;7.666005611E0;2.261217386E-1;9.062851316E0
2.592149646E0;-4.642076015E0;7.632505894E0;2.452643216E-1;8.936675586E0
2.594320360E0;-4.455435753E0;7.633104324E0;2.644068897E-1;8.842233902E0
2.596491157E0;-4.245465755E0;7.561917782E0;2.129612118E-1;8.674787173E0
2.598661873E0;-4.034897327E0;7.447660446E0;2.231307179E-1;8.473360011E0
2.600832984E0;-3.867399693E0;7.423732281E0;2.853440940E-1;8.375559839E0
2.603004484E0;-3.719044685E0;7.409973621E0;3.571287692E-1;8.298586831E0
2.605176379E0;-3.585046530E0;7.419544697E0;4.193421602E-1;8.250942369E0
2.607347155E0;-3.475574970E0;7.424928665E0;3.864408433E-1;8.207223866E0
2.609517444E0;-3.336791277E0;7.381857872E0;4.438686073E-1;8.113138789E0
2.611688353E0;-3.198007345E0;7.310671329E0;4.157529473E-1;7.990370253E0
2.613859617E0;-3.049652576E0;7.238886833E0;3.972085714E-1;7.865089832E0
2.616030312E0;-2.939582586E0;7.268198967E0;3.637090325E-1;7.848576066E0
2.618200996E0;-2.819941521E0;7.253841877E0;3.780659735E-1;7.791869226E0
2.620372261E0;-2.647658348E0;7.177869797E0;4.217349887E-1;7.662230090E0
2.622544462E0;-2.571686029E0;7.144370079E0;4.073780477E-1;7.604048246E0
2.624717140E0;-2.504687071E0;7.106683254E0;3.601198196E-1;7.543745123E0
2.626900449E0;-2.452044964E0;7.063612461E0;3.415754437E-1;7.484906098E0
2.629070269E0;-2.346760750E0;7.006184578E0;3.176472187E-1;7.395593831E0
2.631241840E0;-2.294118643E0;6.982854843E0;2.321037948E-1;7.353714319E0
2.633406717E0;-2.279761791E0;7.059424877E0;2.267199457E-1;7.421872766E0
2.635568031E0;-2.236690998E0;7.145566463E0;2.356930375E-1;7.491158650E0
2.637753244E0;-2.256431818E0;7.259823799E0;2.829512656E-1;7.607666368E0
2.639925739E0;-2.280359983E0;7.365108013E0;2.967100143E-1;7.715756251E0
2.642099882E0;-2.328216314E0;7.441080093E0;3.296113312E-1;7.803775227E0
2.644260201E0;-2.438286304E0;7.512865067E0;3.487538993E-1;7.906327270E0
2.646422311E0;-2.510071039E0;7.545766354E0;4.630111754E-1;7.965765866E0
2.648605427E0;-2.600998163E0;7.631907940E0;5.581258535E-1;8.082246885E0
2.650776915E0;-2.706282377E0;7.717451096E0;6.915257573E-1;8.207388354E0
2.652950500E0;-2.797209740E0;7.783852100E0;8.721838593E-1;8.317057204E0
2.655117857E0;-2.901895761E0;7.864609718E0;1.005583763E0;8.443002057E0
2.657282235E0;-3.021536827E0;7.907082558E0;1.148554921E0;8.542295814E0
2.659464507E0;-3.145963669E0;7.973483086E0;1.253240824E0;8.662801653E0
2.661633534E0;-3.275176048E0;8.044670105E0;1.367498159E0;8.792812204E0
2.663804768E0;-3.418745279E0;8.121239662E0;1.424327731E0;8.925864800E0
2.665980386E0;-3.552743435E0;8.187641144E0;1.442872047E0;9.041091370E0
2.668166086E0;-3.686741590E0;8.263612747E0;1.475773335E0;9.168274981E0
2.670304778E0;-3.835096598E0;8.344968796E0;1.494317770E0;9.304808204E0
2.672485086E0;-3.978067636E0;8.420941353E0;1.451246977E0;9.425677332E0
2.674636697E0;-4.088137627E0;8.468199730E0;1.551147223E0;9.530442467E0
2.676807311E0;-4.198207378E0;8.506484032E0;1.555334687E0;9.612714589E0
2.678973927E0;-4.284348965E0;8.534600258E0;1.569691658E0;9.677756946E0
2.681148376E0;-4.346562386E0;8.516056061E0;1.445264935E0;9.669777978E0
2.683321980E0;-4.399204254E0;8.453842163E0;1.383649707E0;9.629897814E0
2.685493855E0;-4.432703972E0;8.377271652E0;1.288534999E0;9.564929026E0
2.687664560E0;-4.484747887E0;8.315058708E0;1.144965649E0;9.516517812E0
2.689836608E0;-4.484747887E0;8.229515076E0;9.978070259E-1;9.425152564E0
2.692007212E0;-4.489533424E0;8.090731621E0;8.213363886E-1;9.289264879E0
2.694177754E0;-4.508676052E0;7.952546120E0;5.258227587E-1;9.156835649E0
2.696348316E0;-4.493721008E0;7.733004570E0;3.499503136E-1;8.950718038E0
2.698519113E0;-4.474578381E0;7.580461979E0;1.884347796E-1;8.804587620E0
2.700690714E0;-4.455435753E0;7.427919865E0;2.213360928E-2;8.661719873E0
2.702860982E0;-4.441078663E0;7.251449108E0;-1.010967568E-1;8.503935231E0
2.705031860E0;-4.478765965E0;7.165307522E0;-1.818545163E-1;8.451866511E0
2.707203471E0;-4.536193371E0;7.146164894E0;-2.153540403E-1;8.467059723E0
2.709376607E0;-4.684548378E0;7.217351437E0;-2.159522474E-1;8.607077938E0
2.711548229E0;-4.842474937E0;7.336394310E0;-1.639083475E-1;8.791991295E0
2.713716696E0;-4.995615482E0;7.517650604E0;-4.546362907E-2;9.026256788E0
2.715886708E0;-5.163113117E0;7.751548767E0;9.631111473E-2;9.314157030E0
2.718058431E0;-5.340780258E0;8.051848412E0;1.854437590E-1;9.663880483E0
2.720234782E0;-5.326423168E0;8.257032394E0;3.511467278E-1;9.832226185E0
2.722408346E0;-5.336592674E0;8.524430275E0;5.700899959E-1;1.007323858E1
2.724570445E0;-5.317450047E0;8.863613129E0;7.447660565E-1;1.036308782E1
2.726741893E0;-5.255835056E0;9.154939651E0;8.865407705E-1;1.059352051E1
2.728912903E0;-5.175076962E0;9.446864128E0;9.571290612E-1;1.081391508E1
2.731085837E0;-5.027320385E0;9.657432556E0;9.846464992E-1;1.093203927E1
2.733255942E0;-4.850849628E0;9.810572624E0;1.003190875E0;1.099019878E1
2.735426198E0;-4.616353035E0;9.940383911E0;1.064806104E0;1.101161930E1
2.737597575E0;-4.430311203E0;9.978668213E0;1.088734269E0;1.097209273E1
2.739768769E0;-4.200600147E0;9.988838196E0;1.083948612E0;1.089021922E1
2.741940054E0;-4.014558315E0;9.903294563E0;1.084546804E0;1.074095729E1
2.744110027E0;-3.890131474E0;9.836296082E0;1.109073281E0;1.063559528E1
2.746276164E0;-3.903890133E0;9.735796928E0;1.052243710E0;1.054197879E1
2.748454316E0;-3.975674868E0;9.635896683E0;9.427721500E-1;1.046638977E1
2.750635204E0;-4.224528313E0;9.669396400E0;5.407779217E-1;1.056580839E1
2.752807252E0;-4.511068821E0;9.439684868E0;2.691925466E-1;1.046565129E1
2.754977296E0;-4.716253281E0;9.339186668E0;2.506481707E-1;1.046548026E1
2.757145672E0;-5.022534847E0;9.367302895E0;1.453639716E-1;1.062983304E1
2.759317119E0;-5.361717224E0;9.237491608E0;-2.632104978E-2;1.068082186E1
2.761489076E0;-5.681757450E0;9.046066284E0;-3.553341627E-1;1.068830881E1
2.763659771E0;-5.977869034E0;8.902496338E0;-6.610172391E-1;1.074366339E1
2.765827282E0;-6.283552170E0;8.773283958E0;-9.092726111E-1;1.082960368E1
2.767990470E0;-6.522834301E0;8.682356834E0;-1.195214868E0;1.092516481E1
2.770172070E0;-6.761518478E0;8.624929428E0;-1.429711580E0;1.105222217E1
2.772342481E0;-6.996015072E0;8.629714966E0;-1.554138303E0;1.121746643E1
2.774515046E0;-7.220940590E0;8.643473625E0;-1.587637782E0;1.137419065E1
2.776683219E0;-7.364510059E0;8.700303078E0;-1.540379524E0;1.150234981E1
2.778855765E0;-7.517052174E0;8.809774399E0;-1.393221021E0;1.166444440E1
2.781032360E0;-7.627122402E0;8.947959900E0;-1.164706469E0;1.181505496E1
2.783212628E0;-7.684549809E0;9.014361382E0;-9.212366939E-1;1.188106451E1
2.785383638E0;-7.631907940E0;8.875576973E0;-7.004988194E-1;1.172657597E1
2.787554130E0;-7.746763229E0;9.199805260E0;-3.296113312E-1;1.203151699E1
2.789717501E0;-7.809575081E0;9.571888924E0;-4.965107143E-2;1.235366285E1
2.791874809E0;-7.738388538E0;9.767501831E0;1.740778536E-1;1.246262622E1
2.794065717E0;-7.690532207E0;9.972686768E0;4.354937077E-1;1.260112780E1
2.796237215E0;-7.609774113E0;1.025982571E1;5.443671346E-1;1.278550043E1
2.798412488E0;-7.538587570E0;1.052303600E1;5.383850932E-1;1.295586538E1
2.800574923E0;-7.496115208E0;1.081436157E1;4.265206456E-1;1.316526032E1
2.802737032E0;-7.420143127E0;1.113021469E1;2.243271172E-1;1.337873409E1
2.804919486E0;-7.401598454E0;1.148913765E1;2.392822644E-3;1.366689245E1
2.807090426E0;-7.397411346E0;1.185763264E1;-2.859423161E-1;1.397880214E1
2.809264305E0;-7.378866673E0;1.222612762E1;-5.509474277E-1;1.429088567E1
2.811430128E0;-7.355536938E0;1.253719425E1;-8.057830334E-1;1.455796860E1
2.813594801E0;-7.413562775E0;1.288176060E1;-1.055832982E0;1.490018296E1
2.815775963E0;-7.428517818E0;1.314497089E1;-1.253240824E0;1.515070128E1
2.817945559E0;-7.399804115E0;1.332682610E1;-1.316650629E0;1.530016221E1
2.820118910E0;-7.338188648E0;1.344168091E1;-1.341177106E0;1.537291626E1
2.822283491E0;-7.323832035E0;1.354636765E1;-1.231705427E0;1.544861451E1
2.824443901E0;-7.295117855E0;1.359900951E1;-1.164706469E0;1.547605717E1
2.826631045E0;-7.275975227E0;1.354158115E1;-1.112064362E0;1.541268707E1
2.828800957E0;-7.285546780E0;1.342194080E1;-1.121037364E0;1.531288384E1
2.830976780E0;-7.390232563E0;1.319761372E1;-1.205982566E0;1.517389004E1
2.833140618E0;-7.523632526E0;1.293918800E1;-1.414756417E0;1.503426647E1
2.835300306E0;-7.709674358E0;1.267179012E1;-1.733600020E0;1.493381106E1
2.837481977E0;-7.925028801E0;1.240439224E1;-2.138585329E0;1.487442690E1
2.839653283E0;-8.168498039E0;1.224646664E1;-2.568096876E0;1.494307287E1
2.841828565E0;-8.445467949E0;1.204128170E1;-3.040679455E0;1.501879241E1
2.843993209E0;-8.741579056E0;1.182652569E1;-3.436093330E0;1.510260413E1
2.846148013E0;-9.037691116E0;1.166860008E1;-3.751347780E0;1.522854881E1
2.848343265E0;-9.372686386E0;1.165843010E1;-3.990629911E0;1.548196918E1
2.850512882E0;-9.626325607E0;1.173440266E1;-4.110270977E0;1.572439754E1
2.852687290E0;-9.841679573E0;1.185823059E1;-4.111467361E0;1.594930887E1
2.854858757E0;-9.966106415E0;1.206820107E1;-3.935595036E0;1.613857684E1
2.857035321E0;-9.764511108E0;1.186720371E1;-3.533002615E0;1.576890322E1
2.859211885E0;-9.630513191E0;1.185703468E1;-3.026322365E0;1.557224078E1
2.861358565E0;-9.717252731E0;1.228235817E1;-2.933002472E0;1.593373234E1
2.863539575E0;-9.665208817E0;1.265504074E1;-2.825325251E0;1.617246983E1
2.865711673E0;-9.493523598E0;1.288475132E1;-2.649452925E0;1.622231203E1
2.867879052E0;-9.202198029E0;1.314317703E1;-2.382653236E0;1.622037569E1
2.870037063E0;-8.901300430E0;1.334895897E1;-2.192423820E0;1.619365855E1
2.872227971E0;-8.514261246E0;1.343988705E1;-1.953739643E0;1.602935766E1
2.874420301E0;-8.050651550E0;1.339262867E1;-1.713859200E0;1.571982209E1
2.876568973E0;-7.490731239E0;1.321197033E1;-1.454836130E0;1.525725279E1
2.878743413E0;-6.926024914E0;1.298345566E1;-1.218544960E0;1.476566266E1
2.880889002E0;-6.385845661E0;1.286919880E1;-9.451649189E-1;1.439752198E1
2.883077692E0;-5.778068542E0;1.265025520E1;-7.142575383E-1;1.392570273E1
2.885245141E0;-5.032105923E0;1.248395348E1;-3.014956415E-1;1.346336080E1
2.887420537E0;-4.577469826E0;1.213101292E1;-2.751746178E-1;1.296882514E1
2.889591740E0;-3.970290899E0;1.183131123E1;-3.637090325E-1;1.248500779E1
2.891777288E0;-3.396013498E0;1.148853970E1;-3.427718580E-1;1.198486314E1
2.893950332E0;-2.845664263E0;1.105424213E1;-2.344966233E-1;1.141705141E1
2.896102482E0;-2.405385017E0;1.072522926E1;-4.606183618E-2;1.099174879E1
2.898270736E0;-2.060818434E0;1.070189953E1;1.118644550E-1;1.089908894E1
2.900433629E0;-1.869392633E0;1.069771194E1;7.896314561E-2;1.086010612E1
2.902588283E0;-1.745564103E0;1.078385353E1;1.615155302E-2;1.092422775E1
2.904784652E0;-1.702493310E0;1.092263699E1;-2.273181453E-2;1.105454653E1
2.906954584E0;-1.707877159E0;1.109013462E1;4.366901144E-2;1.122095527E1
2.909132461E0;-1.803590059E0;1.130907822E1;1.567298770E-1;1.145306734E1
2.911291275E0;-1.928016901E0;1.154297638E1;2.608176768E-1;1.170579253E1
2.913445542E0;-2.110469580E0;1.182473087E1;3.355933726E-1;1.201627917E1
2.915642023E0;-2.325823545E0;1.205862999E1;3.864408433E-1;1.228695849E1
2.917814031E0;-2.498106956E0;1.219202995E1;4.719842672E-1;1.245427244E1
2.919991409E0;-2.603390932E0;1.222971630E1;5.431707501E-1;1.251553593E1
2.922150132E0;-2.712862730E0;1.221057415E1;5.431707501E-1;1.252009504E1
2.924309667E0;-2.832503796E0;1.215314579E1;4.953143001E-1;1.248868955E1
2.926496740E0;-2.952144861E0;1.216690540E1;3.900300860E-1;1.252600774E1
2.928666998E0;-3.119642496E0;1.220040417E1;2.560320199E-1;1.259553824E1
2.930842169E0;-3.306282759E0;1.233858967E1;1.549352705E-1;1.277483094E1
2.933007025E0;-3.468994617E0;1.252523041E1;5.802594870E-2;1.299687222E1
2.935169622E0;-3.632304668E0;1.277348518E1;4.187439568E-3;1.327989377E1
2.937352962E0;-3.751945972E0;1.301216984E1;-1.022931710E-1;1.354267796E1
2.939522446E0;-3.905086517E0;1.323649693E1;-2.470589429E-1;1.380273848E1
2.941696712E0;-3.996612072E0;1.344227982E1;-3.343969584E-1;1.402781580E1
2.943863053E0;-4.097110748E0;1.365284824E1;-6.269195080E-1;1.426813266E1
2.946035599E0;-4.087539196E0;1.369591904E1;-6.658028960E-1;1.430837057E1
2.948207495E0;-4.121636868E0;1.393460274E1;-5.377869010E-1;1.454132933E1
2.950377814E0;-4.164707661E0;1.420678616E1;-3.577269912E-1;1.480896794E1
2.952549577E0;-4.246662140E0;1.449332714E1;-2.063809484E-1;1.510408104E1
2.954726283E0;-4.318446636E0;1.472662735E1;-7.178467698E-3;1.534674513E1
2.956911149E0;-4.366901398E0;1.491266918E1;2.213360965E-1;1.554048003E1
2.959048437E0;-4.371686935E0;1.506521130E1;5.072783828E-1;1.569488991E1
2.961231807E0;-4.409972191E0;1.526082420E1;7.932206988E-1;1.590502465E1
2.963396867E0;-4.390829563E0;1.537986755E1;1.045663476E0;1.602850967E1
2.965575486E0;-4.433900356E0;1.556590939E1;1.350150228E0;1.624130269E1
2.967741258E0;-4.467998028E0;1.581416512E1;1.569093466E0;1.650796411E1
2.969904802E0;-4.520640373E0;1.600977898E1;1.758724689E0;1.672848842E1
2.972086372E0;-4.525425911E0;1.609053612E1;1.830509305E0;1.681474343E1
2.974252428E0;-4.482355118E0;1.613360596E1;1.839482427E0;1.684542799E1
2.976434760E0;-4.458426952E0;1.606241989E1;1.753939033E0;1.676171846E1
2.978606513E0;-4.377070904E0;1.593380642E1;1.611566067E0;1.660247216E1
2.980754717E0;-4.290929317E0;1.569512177E1;1.411765337E0;1.633223815E1
2.982943011E0;-4.132404804E0;1.529910946E1;1.185045362E0;1.589162837E1
2.985111213E0;-3.912265062E0;1.477867126E1;9.104689956E-1;1.531482602E1
2.987291623E0;-3.777668715E0;1.427797318E1;6.317051649E-1;1.478277208E1
2.989451830E0;-3.604787350E0;1.380060482E1;3.714857101E-1;1.426846827E1
2.991604134E0;-3.489333630E0;1.339980698E1;1.202393398E-1;1.384719227E1
2.993796099E0;-3.326621771E0;1.303729439E1;-8.315058798E-2;1.345527300E1
2.995968156E0;-3.187838078E0;1.276989651E1;-2.488535494E-1;1.316413675E1
2.998144914E0;-3.182454109E0;1.238764286E1;-4.761717021E-1;1.279876749E1
3.000310758E0;-3.200998545E0;1.220698452E1;-8.907282352E-1;1.265109717E1
3.002482429E0;-3.138785124E0;1.213520050E1;-9.720842242E-1;1.257219197E1
3.004653897E0;-3.052643538E0;1.203529930E1;-8.997012973E-1;1.244895675E1
3.006824552E0;-3.071786165E0;1.199641609E1;-7.752745152E-1;1.240769599E1
3.008994790E0;-3.023929596E0;1.190070343E1;-6.311069727E-1;1.229508798E1
3.011166634E0;-3.085544825E0;1.184806156E1;-5.258227587E-1;1.225453545E1
3.013342741E0;-3.056830883E0;1.181456184E1;-4.396811724E-1;1.221152759E1
3.015507738E0;-3.109472990E0;1.172842026E1;-3.720839322E-1;1.213932084E1
3.017678382E0;-3.166900873E0;1.159442234E1;-3.427718580E-1;1.202403356E1
3.019842791E0;-3.252444267E0;1.141735363E1;-2.368894368E-1;1.187394097E1
3.021996335E0;-3.261417150E0;1.119242764E1;-1.112662554E-1;1.165845866E1
3.024173296E0;-3.232703447E0;1.101057339E1;-9.631111473E-2;1.147572977E1
3.026347104E0;-3.232105255E0;1.081974602E1;-1.525424421E-1;1.129321378E1
3.028524270E0;-3.217748165E0;1.065703392E1;-1.848455518E-1;1.113375243E1
3.030693866E0;-3.160320520E0;1.050449181E1;-1.603191197E-1;1.097076461E1
3.032864613E0;-3.116651535E0;1.036092186E1;-3.050848842E-2;1.081957251E1
3.035035031E0;-3.083152056E0;1.022692394E1;5.623133108E-2;1.068171156E1
3.037206479E0;-3.006581545E0;1.006899738E1;1.286142170E-1;1.050908095E1
3.039378151E0;-2.996412039E0;9.916455269E0;1.393819153E-1;1.036021223E1
3.041549366E0;-3.049054146E0;9.777671814E0;5.862415582E-2;1.024221822E1
3.043716409E0;-3.158525944E0;9.624530792E0;-5.024927482E-2;1.012967937E1
3.045879759E0;-3.235096216E0;9.466604233E0;-1.453639716E-1;1.000517736E1
3.048061298E0;-3.311068296E0;9.242277145E0;-2.877369225E-1;9.821692962E0
3.050232410E0;-3.410968781E0;8.936594009E0;-3.768695593E-1;9.572849689E0
3.052405486E0;-3.525225878E0;8.697312355E0;-3.996013701E-1;9.393090064E0
3.054573841E0;-3.596412420E0;8.395816803E0;-3.643072546E-1;9.140932221E0
3.056743499E0;-3.758526087E0;8.113463402E0;-2.913261652E-1;8.946489683E0
3.058912586E0;-3.925425529E0;7.864011765E0;-1.567298770E-1;8.790688874E0
3.061087136E0;-3.958326817E0;7.619943619E0;4.067798331E-2;8.586824013E0
3.063258116E0;-4.000799656E0;7.347161770E0;2.285145670E-1;8.368954706E0
3.065427427E0;-4.048655987E0;7.079763889E0;2.727817893E-1;8.160213351E0
3.067590321E0;-4.081557274E0;6.811768055E0;3.553341627E-1;7.948934280E0
3.069771606E0;-4.095315933E0;6.534200668E0;5.048855543E-1;7.728020470E0
3.071940652E0;-4.051646709E0;6.299703598E0;6.113662124E-1;7.515043255E0
3.074109923E0;-3.955934048E0;6.061019897E0;7.704889178E-1;7.278669491E0
3.076285094E0;-3.864408493E0;5.860022545E0;1.024726272E0;7.093911556E0
3.078455393E0;-3.797409534E0;5.687739372E0;1.274178028E0;6.956596006E0
3.080628051E0;-3.739981890E0;5.601597786E0;1.274776220E0;6.854955631E0
3.082797078E0;-3.682554007E0;5.515456200E0;1.304088354E0;6.758854011E0
3.084968230E0;-3.625126362E0;5.548955917E0;1.385444283E0;6.771403752E0
3.087139525E0;-3.486342669E0;5.496912003E0;1.591227055E0;6.700942494E0
3.089310546E0;-3.414557934E0;5.467599869E0;1.768295884E0;6.684364184E0
3.091483195E0;-3.390629768E0;5.448457241E0;1.773081541E0;6.657767996E0
3.093652913E0;-3.285345554E0;5.382056236E0;1.744965911E0;6.542547728E0
3.095821960E0;-3.170490026E0;5.334797859E0;1.744965911E0;6.446470448E0
3.097992462E0;-3.074777126E0;5.306084156E0;1.649851203E0;6.350652914E0
3.100165131E0;-3.050848961E0;5.254040241E0;1.554736495E0;6.271349441E0
3.102337178E0;-2.931207657E0;5.239683151E0;1.435095429E0;6.172986048E0
3.104507619E0;-2.868994236E0;5.168497086E0;1.392622828E0;6.073210715E0
3.106678446E0;-2.677568436E0;5.077569485E0;1.512862086E0;5.936315043E0
3.108850311E0;-2.514856577E0;4.963312149E0;1.523031592E0;5.768760380E0
3.111023824E0;-2.385644197E0;4.825126648E0;1.447657704E0;5.573944585E0
3.113201691E0;-2.246860504E0;4.648656368E0;1.448854089E0;5.362608164E0
3.115362355E0;-2.132004976E0;4.533800602E0;1.506880045E0;5.231776045E0
3.117533091E0;-2.045863390E0;4.381258488E0;1.536192179E0;5.073546034E0
3.119702026E0;-1.916650891E0;4.281357765E0;1.527219057E0;4.933150413E0
3.121875834E0;-1.768295884E0;4.180859566E0;1.542174220E0;4.794242210E0
3.124052105E0;-1.629512191E0;4.042674065E0;1.557727575E0;4.628718913E0
3.126234009E0;-1.523629785E0;3.870988846E0;1.439282775E0;4.401992421E0
3.128404999E0;-1.451845169E0;3.784847260E0;1.415952802E0;4.293931242E0
3.130573395E0;-1.332203984E0;3.742374659E0;1.473380566E0;4.236860374E0
3.132738659E0;-1.250848055E0;3.675375462E0;1.493121386E0;4.159617424E0
3.134900147E0;-1.183848977E0;3.594617844E0;1.493719578E0;4.068657521E0
3.137086039E0;-1.088136077E0;3.494119167E0;1.513460279E0;3.960236217E0
3.139255056E0;-1.001994491E0;3.431905985E0;1.599601984E0;3.916720332E0
3.141424357E0;-9.254241586E-1;3.308077335E0;1.657627940E0;3.814120596E0
3.143570934E0;-8.392825127E-1;3.111865759E0;1.716252089E0;3.651523637E0
3.145742616E0;-7.668996453E-1;2.964108944E0;1.750349760E0;3.526726695E0
3.147912487E0;-6.664010882E-1;2.767897606E0;1.751546144E0;3.342642886E0
3.150088329E0;-5.850451589E-1;2.615355253E0;1.743171334E0;3.197031004E0
3.152259655E0;-4.983053207E-1;2.448455811E0;1.715055585E0;3.030620350E0
3.154430787E0;-4.169493318E-1;2.291127682E0;1.582253933E0;2.815428974E0
3.156601370E0;-3.595215976E-1;2.118844509E0;1.526022673E0;2.635811645E0
3.158775168E0;-3.451646566E-1;2.042872429E0;1.454836130E0;2.531603161E0
3.160957979E0;-2.350948304E-1;1.894517303E0;1.469791293E0;2.409305260E0
3.163128013E0;-2.111666054E-1;1.828116536E0;1.436890006E0;2.334792131E0
3.165298117E0;-1.920240223E-1;1.785045743E0;1.231705427E0;2.177236732E0
3.167466615E0;-1.345962733E-1;1.689931035E0;1.103091240E0;2.022570974E0
3.169637809E0;-9.152546525E-2;1.628315806E0;1.003190875E0;1.914727450E0
3.171808870E0;-5.982056609E-4;1.551745534E0;9.128618240E-1;1.800341987E0
3.173981050E0;6.221338734E-2;1.447059512E0;8.991031051E-1;1.704769231E0
3.176150596E0;6.699903309E-2;1.399203062E0;7.513462901E-1;1.589584640E0
3.178323050E0;1.004985496E-1;1.347159147E0;5.988038778E-1;1.477668370E0
3.180493522E0;1.579262912E-1;1.284945726E0;5.371887088E-1;1.401641160E0
3.182663657E0;1.962114573E-1;1.223330617E0;5.084748268E-1;1.339247320E0
3.184834402E0;2.057827413E-1;1.194616675E0;3.894318938E-1;1.273229256E0
3.187005688E0;2.344966233E-1;1.151545882E0;3.224328458E-1;1.218609669E0
3.189176618E0;3.158525825E-1;1.075573802E0;3.804588020E-1;1.183795066E0
3.191348055E0;3.684946895E-1;9.990034699E-1;5.623133183E-1;1.204156359E0
3.193519106E0;3.589234054E-1;9.607182741E-1;4.480560422E-1;1.119178194E0
3.195691764E0;3.924229145E-1;8.841479421E-1;3.864408433E-1;1.041657263E0
3.197862632E0;4.642075896E-1;7.740781307E-1;4.492524564E-1;1.008222896E0
3.200031659E0;5.168496966E-1;7.070791125E-1;5.641079545E-1;1.041783214E0
3.202200004E0;5.461617708E-1;6.358926296E-1;5.503492355E-1;1.002764378E0
3.204362988E0;5.796613097E-1;5.545366406E-1;5.605186820E-1;9.786211283E-1
3.206544690E0;6.753742099E-1;4.157529473E-1;7.573283911E-1;1.096597979E0
3.208715558E0;6.945167780E-1;3.104687333E-1;9.056833982E-1;1.182796182E0
3.210887169E0;7.136593461E-1;2.530409992E-1;8.440681696E-1;1.133927019E0
3.213049919E0;7.908278704E-1;1.435693651E-1;9.451649189E-1;1.240708510E0
3.215230105E0;9.056833982E-1;2.392822690E-2;1.265803218E0;1.556628653E0
3.217399762E0;9.104689956E-1;-6.759724021E-2;1.400399446E0;1.671718214E0
3.219572736E0;9.726824164E-1;-8.135596663E-2;1.290329576E0;1.617924686E0
3.221739922E0;1.006181955E0;-4.785645381E-2;1.443470240E0;1.760198483E0
3.223906457E0;1.044467092E0;-2.452643216E-2;1.600798368E0;1.911561788E0
3.226082278E0;1.101894855E0;1.375873014E-2;1.777867198E0;2.091691504E0
3.228253929E0;1.111466169E0;2.751746029E-2;2.006979942E0;2.294358896E0
3.230429222E0;1.221535921E0;8.374879137E-3;2.465803623E0;2.751800802E0
3.232598290E0;1.130608678E0;6.041877344E-2;2.589632273E0;2.826326541E0
3.234768404E0;1.063609719E0;1.944168359E-1;2.478964329E0;2.704501374E0
3.236939059E0;9.535398483E-1;3.326023519E-1;2.502294302E0;2.698395698E0
3.239109622E0;8.147560954E-1;5.377869010E-1;2.582453728E0;2.760816818E0
3.241281222E0;6.801598072E-1;8.003991842E-1;2.705085993E0;2.901852244E0
3.243451633E0;5.222335458E-1;1.000199914E0;2.909074068E0;3.120230709E0
3.245623324E0;3.260220885E-1;1.266999602E0;3.156133175E0;3.416541382E0
3.247795454E0;2.111666054E-1;1.596012712E0;3.713062525E0;4.047058342E0
3.249966404E0;-4.725824669E-2;1.881955028E0;3.883551121E0;4.315780043E0
3.252135940E0;-3.822534084E-1;2.100898266E0;3.948755503E0;4.489160413E0
3.254304203E0;-7.842476368E-1;2.420340061E0;4.085744858E0;4.813148804E0
3.256467553E0;-1.128814101E0;2.801397085E0;4.384249210E0;5.323879041E0
3.258652571E0;-1.545165181E0;3.024527788E0;4.850849628E0;5.921659049E0
3.260834731E0;-2.137987137E0;3.281756163E0;4.758127689E0;6.162847687E0
3.263008345E0;-2.712264538E0;3.662813187E0;4.750949383E0;6.583623577E0
3.265174737E0;-3.343969584E0;3.972085476E0;4.786841869E0;7.062113755E0
3.267330153E0;-4.008575916E0;4.310071945E0;4.884947300E0;7.649059496E0
3.269501072E0;-4.673780918E0;4.819743156E0;5.024927616E0;8.385943579E0
3.271687239E0;-5.338985443E0;5.367699623E0;5.227120876E0;9.199986819E0
3.273859379E0;-6.023332596E0;5.887540340E0;5.395216942E0;1.000260130E1
3.276033064E0;-6.659823418E0;6.516254425E0;5.754738331E0;1.095133932E1
3.278199985E0;-7.244270325E0;7.298707485E0;6.089135647E0;1.195107344E1
3.280370111E0;-7.790432453E0;8.018348694E0;6.476772785E0;1.292026855E1
3.282548517E0;-8.260024071E0;8.863015175E0;6.868597507E0;1.392690444E1
3.284726149E0;-8.906683922E0;9.865009308E0;7.340581894E0;1.518326611E1
3.286865747E0;-9.486345291E0;1.094297600E1;7.744968891E0;1.642327659E1
3.289051172E0;-1.007139015E1;1.215972614E1;8.311469078E0;1.784299184E1
3.291216405E0;-1.091007519E1;1.352961731E1;8.757730484E0;1.946222311E1
3.293401300E0;-1.182473087E1;1.496112347E1;9.160323143E0;2.115587379E1
3.295568963E0;-1.282134151E1;1.627239037E1;9.568299294E0;2.281950564E1
3.297740107E0;-1.377906895E1;1.768475342E1;1.007557774E1;2.457906652E1
3.299905279E0;-1.483250904E1;1.913420677E1;1.083170986E1;2.652257777E1
3.302055395E0;-1.564726543E1;2.044607162E1;1.161715412E1;2.824600910E1
3.304239150E0;-1.626042557E1;2.150010872E1;1.234217930E1;2.964768970E1
3.306422897E0;-1.669173241E1;2.243031883E1;1.291526031E1;3.079832922E1
3.308599217E0;-1.717568016E1;2.335634232E1;1.304806232E1;3.179268227E1
3.310768377E0;-1.729591942E1;2.380559349E1;1.309831142E1;3.220901849E1
3.312937546E0;-1.694716644E1;2.376312256E1;1.322812176E1;3.204490052E1
3.315107386E0;-1.628674698E1;2.331506538E1;1.332682610E1;3.140787632E1
3.317279089E0;-1.545404530E1;2.268575287E1;1.321615791E1;3.046535293E1
3.319443721E0;-1.454955769E1;2.196132660E1;1.318265820E1;2.945796958E1
3.321593938E0;-1.357807255E1;2.106999969E1;1.281536007E1;2.815212949E1
3.323774511E0;-1.260120201E1;1.985384750E1;1.228774261E1;2.653213469E1
3.325951279E0;-1.167637634E1;1.849412537E1;1.178883934E1;2.484647199E1
3.328148962E0;-1.067976570E1;1.696750450E1;1.135813046E1;2.304258518E1
3.330308497E0;-9.664610863E0;1.544567013E1;1.066959572E1;2.111430088E1
3.332479711E0;-8.624929428E0;1.387179089E1;1.000498962E1;1.915504653E1
3.334649877E0;-7.609774113E0;1.244566917E1;9.425926208E0;1.736811527E1
3.336819290E0;-6.665805817E0;1.106680489E1;8.946763992E0;1.571469769E1
3.338988042E0;-5.779862881E0;9.854840279E0;8.528617859E0;1.425699879E1
3.341158351E0;-4.918447018E0;8.863613129E0;8.027919769E0;1.293067108E1
3.343329800E0;-4.085146427E0;7.938787460E0;7.465008259E0;1.163783124E1
3.345502996E0;-3.333800077E0;7.152146816E0;6.934998035E0;1.050531412E1
3.347667333E0;-2.582453728E0;6.399005890E0;6.667002201E0;9.595064460E0
3.349829993E0;-1.940579176E0;5.803193092E0;6.336194515E0;8.808533280E0
3.352009253E0;-1.290329576E0;5.317450047E0;6.004788399E0;8.123897410E0
3.354170080E0;-6.538388133E-1;4.960919380E0;5.730212212E0;7.607467271E0
3.356360988E0;-7.537391037E-2;4.699503899E0;5.474180222E0;7.215099945E0
3.358554134E0;4.414757788E-1;4.538586140E0;5.274977684E0;6.972736520E0
3.360702460E0;8.668000102E-1;4.415356159E0;4.917250633E0;6.665288145E0
3.362870317E0;1.301695466E0;4.535595417E0;5.056034088E0;6.915888777E0
3.365036200E0;1.530808330E0;4.627120972E0;5.136792183E0;7.080978503E0
3.367219885E0;1.635494232E0;4.828117847E0;5.126622677E0;7.229648913E0
3.369376390E0;1.549352646E0;5.142774105E0;5.200799942E0;7.476425560E0
3.371555274E0;1.309472203E0;5.434100151E0;5.199005604E0;7.633729179E0
3.373722347E0;1.046261668E0;5.753541946E0;5.235496044E0;7.849097224E0
3.375897213E0;6.969096065E-1;6.058627129E0;5.395814896E0;8.142939523E0
3.378064103E0;3.092723191E-1;6.373282909E0;5.590231895E0;8.483223270E0
3.380229611E0;-1.740778536E-1;6.716054916E0;5.726024628E0;8.827403626E0
3.382408495E0;-6.574280262E-1;7.073183537E0;5.771488190E0;9.152716147E0
3.384579251E0;-1.240678549E0;7.373483181E0;5.750551224E0;9.432729025E0
3.386753435E0;-1.834098577E0;7.682755470E0;5.733801365E0;9.760385612E0
3.388919115E0;-2.379662037E0;7.973483086E0;5.765506268E0;1.012325474E1
3.391080940E0;-2.796013355E0;8.321041107E0;5.916254044E0;1.058581493E1
3.393264391E0;-3.083152056E0;8.803194046E0;6.094519138E0;1.114204719E1
3.395434140E0;-3.236890793E0;9.285347939E0;6.340381622E0;1.170023878E1
3.397608049E0;-3.237488985E0;9.714859962E0;6.572485447E0;1.216788412E1
3.399774808E0;-3.190230846E0;1.014018440E1;6.780661106E0;1.260865883E1
3.401943814E0;-3.110071182E0;1.067079258E1;6.949953556E0;1.310878375E1
3.404120491E0;-3.092125177E0;1.146401310E1;6.940980434E0;1.375361930E1
3.406291907E0;-3.265604734E0;1.252523041E1;6.725028038E0;1.458669165E1
3.408461128E0;-3.545564890E0;1.391127300E1;6.411568165E0;1.572268276E1
3.410626961E0;-4.025924206E0;1.564606953E1;5.919245243E0;1.720595890E1
3.412782855E0;-4.712664127E0;1.757109451E1;5.554339409E0;1.902112646E1
3.414960334E0;-5.495715618E0;1.969233131E1;5.136193752E0;2.108011596E1
3.417142738E0;-6.436094761E0;2.195175552E1;4.707878590E0;2.335523511E1
3.419317268E0;-7.424330235E0;2.423510551E1;4.369892120E0;2.572074991E1
3.421489042E0;-8.331210136E0;2.633660316E1;4.037290096E0;2.791640091E1
3.423658822E0;-9.094520569E0;2.820001221E1;3.792623997E0;2.987197666E1
3.425829668E0;-9.665208817E0;2.956093025E1;3.741776466E0;3.132516161E1
3.427999438E0;-9.991828918E0;3.043490982E1;3.674777269E0;3.224320655E1
3.430170388E0;-1.002592659E1;3.057369232E1;3.415754318E0;3.235640962E1
3.432338092E0;-9.752547264E0;3.000121117E1;3.128017426E0;3.170125144E1
3.434493395E0;-9.215357780E0;2.867917633E1;2.729014158E0;3.024674350E1
3.436671496E0;-8.433503151E0;2.705564499E1;2.542374134E0;2.845339290E1
3.438855476E0;-7.331010342E0;2.508934402E1;2.367697954E0;2.624547370E1
3.441030587E0;-6.032305717E0;2.283111763E1;2.179861546E0;2.371498347E1
3.443196358E0;-4.651647091E0;2.021516418E1;1.975275040E0;2.083728378E1
3.445355242E0;-3.318246841E0;1.735992813E1;1.791027784E0;1.776473043E1
3.447536426E0;-2.108675003E0;1.427498150E1;1.708475351E0;1.453067428E1
3.449696857E0;-9.906286001E-1;1.118943691E1;1.606182218E0;1.134745191E1
3.451884816E0;1.316052489E-2;8.266604424E0;1.412363529E0;8.386399265E0
3.454054483E0;9.158528447E-1;5.568696499E0;1.068993568E0;5.743858840E0
3.456223916E0;1.588834286E0;3.281157970E0;6.472585201E-1;3.702611998E0
3.458381732E0;2.160120726E0;1.375872970E0;2.470589429E-1;2.572972231E0
3.460564004E0;2.645265341E0;-1.525424421E-1;-6.939185411E-2;2.650568458E0
3.462735066E0;3.043670416E0;-1.293320656E0;-3.834498227E-1;3.329210370E0
3.464909361E0;3.379263878E0;-2.062014818E0;-5.988038778E-1;4.003735200E0
3.467078877E0;3.652643681E0;-2.491526604E0;-6.867401004E-1;4.474496915E0
3.469254474E0;3.848855257E0;-2.691925526E0;-5.760720372E-1;4.732019528E0
3.471420206E0;4.030709743E0;-2.667997360E0;-2.937189937E-1;4.842633767E0
3.473591684E0;4.140181541E0;-2.491526604E0;1.878365725E-1;4.835709937E0
3.475760516E0;4.188037872E0;-2.205584288E0;6.358926296E-1;4.775837383E0
3.477936837E0;4.192225456E0;-1.876571178E0;1.131206870E0;4.730317394E0
3.480125589E0;4.158725739E0;-1.480558991E0;1.506281853E0;4.664326287E0
3.482273844E0;4.086342812E0;-1.060618639E0;1.852642894E0;4.610357379E0
3.484446074E0;3.966103554E0;-6.592226624E-1;1.998605132E0;4.489874652E0
3.486611998E0;3.817748547E0;-3.439682424E-1;1.953739643E0;4.302396624E0
3.488791055E0;3.597010612E0;-1.148554832E-1;1.789831281E0;4.019349841E0
3.490971109E0;3.267399311E0;-5.982056609E-4;1.626521230E0;3.649858891E0
3.493125864E0;2.894119024E0;2.141576260E-1;1.433898926E0;3.236951428E0
3.495273996E0;2.453241348E0;5.198407173E-1;1.021137118E0;2.707646302E0
3.497468627E0;1.936391711E0;8.727820516E-1;6.029912829E-1;2.207931126E0
3.499639373E0;1.376471281E0;1.287936807E0;1.794617027E-1;1.893584143E0
3.501810526E0;7.782655358E-1;1.770090580E0;-2.488535494E-1;1.949575850E0
3.503986572E0;1.842473447E-1;2.328814745E0;-6.873382926E-1;2.435109675E0
3.506156982E0;-4.432703853E-1;2.983251572E0;-1.192822099E0;3.243316687E0
3.508330383E0;-1.042074203E0;3.709473372E0;-1.799402595E0;4.252524078E0
3.510498332E0;-1.593021631E0;4.397409916E0;-2.434697151E0;5.272824869E0
3.512666626E0;-2.167897224E0;4.990231514E0;-3.083152056E0;6.253640183E0
3.514826730E0;-2.771486759E0;5.673382282E0;-3.780659676E0;7.359469611E0
3.516983744E0;-3.355933666E0;6.366104603E0;-4.458426952E0;8.465645249E0
3.519156545E0;-4.016951084E0;7.020541668E0;-4.935794830E0;9.475545996E0
3.521328502E0;-4.735395908E0;7.770093441E0;-5.327619553E0;1.054428075E1
3.523502879E0;-5.420341492E0;8.600402832E0;-5.499902725E0;1.155837189E1
3.525675272E0;-6.062216282E0;9.550353050E0;-5.510072231E0;1.258255163E1
3.527846141E0;-6.637091637E0;1.049970531E1;-5.281557560E0;1.349776453E1
3.530015971E0;-7.231110096E0;1.150648594E1;-4.929214478E0;1.445632482E1
3.532186798E0;-7.730013371E0;1.257069397E1;-4.375874519E0;1.539232703E1
3.534356608E0;-8.304888725E0;1.369651699E1;-3.842873096E0;1.647220168E1
3.536528382E0;-8.898907661E0;1.467458344E1;-3.518645763E0;1.751898469E1
3.538699585E0;-9.473783493E0;1.550967789E1;-3.246462107E0;1.846191209E1
3.540870453E0;-1.004387283E1;1.620120430E1;-2.925823927E0;1.928519764E1
3.543043000E0;-1.050808048E1;1.668754578E1;-2.666202545E0;1.989981345E1
3.545214539E0;-1.096271706E1;1.699681664E1;-2.448455811E0;2.037321469E1
3.547384837E0;-1.133061314E1;1.703869247E1;-2.276770830E0;2.058843172E1
3.549554495E0;-1.154058361E1;1.684666824E1;-2.036890268E0;2.052179873E1
3.551726939E0;-1.160698414E1;1.644467354E1;-1.661815286E0;2.019680664E1
3.553901805E0;-1.154835987E1;1.576570988E1;-1.252044439E0;1.958289659E1
3.556066997E0;-1.120199966E1;1.469492245E1;-7.112665176E-1;1.849138833E1
3.558238394E0;-1.074616623E1;1.351884937E1;-9.750752151E-2;1.726988375E1
3.560409994E0;-1.021795082E1;1.245344543E1;4.773681164E-1;1.611591457E1
3.562582328E0;-9.623932838E0;1.145982552E1;9.613165259E-1;1.499572651E1
3.564751750E0;-9.029315948E0;1.064746284E1;1.477568030E0;1.403852623E1
3.566922415E0;-8.373085022E0;9.893125534E0;1.964507341E0;1.310884338E1
3.569092896E0;-7.736593723E0;9.196215630E0;2.318047047E0;1.223922410E1
3.571265311E0;-7.123433113E0;8.627920151E0;2.526820660E0;1.147035867E1
3.573436362E0;-6.573083878E0;8.155936241E0;2.568096876E0;1.078516802E1
3.575608003E0;-6.051448345E0;7.750950813E0;2.461018085E0;1.013675863E1
3.577780641E0;-5.534598827E0;7.432106972E0;2.324627161E0;9.553632276E0
3.579956981E0;-4.970490932E0;7.151548862E0;2.201995134E0;8.983274114E0
3.582121207E0;-4.458426952E0;6.923034191E0;2.027318954E0;8.480329914E0
3.584291393E0;-4.052245140E0;6.680760860E0;1.780260086E0;8.013899321E0
3.586459799E0;-3.678964853E0;6.452246189E0;1.518844128E0;7.581104851E0
3.588632692E0;-3.315255880E0;6.305087566E0;1.281356573E0;7.237881281E0
3.590803957E0;-2.961716175E0;6.153143406E0;1.062413216E0;6.910980995E0
3.592975721E0;-2.669791937E0;6.096911907E0;8.955138922E-1;6.715807392E0
3.595146781E0;-2.407179594E0;6.083153248E0;6.478567123E-1;6.574114796E0
3.597318931E0;-2.172683001E0;6.041278839E0;4.426721931E-1;6.435336829E0
3.599488486E0;-1.981855392E0;6.065805435E0;2.703889608E-1;6.387085138E0
3.601658602E0;-1.814955950E0;6.133402824E0;1.363908947E-1;6.397757246E0
3.603829694E0;-1.700100541E0;6.162116528E0;2.153540403E-2;6.392377157E0
3.606002260E0;-1.637887120E0;6.243472576E0;-2.632104978E-2;6.454790223E0
3.608176841E0;-1.628913999E0;6.329614162E0;-8.913264424E-2;6.536460884E0
3.610342033E0;-1.619342685E0;6.425326824E0;-9.870393574E-2;6.626978044E0
3.612508395E0;-1.638485312E0;6.487540245E0;-7.537391037E-2;6.691673466E0
3.614686200E0;-1.671984792E0;6.559325218E0;-4.247260094E-2;6.769201163E0
3.616856549E0;-1.734198213E0;6.702296257E0;3.349951655E-2;6.923101962E0
3.619028933E0;-1.796411633E0;6.821339130E0;8.973085135E-2;7.054488919E0
3.621198102E0;-1.896910191E0;6.949953556E0;1.992024779E-1;7.206927524E0
3.623368839E0;-2.060220242E0;7.117451191E0;1.836491376E-1;7.411905686E0
3.625540235E0;-2.199003935E0;7.279564857E0;1.968096644E-1;7.606997888E0
3.627711214E0;-2.356930256E0;7.460821152E0;1.956132501E-1;7.826700265E0
3.629883954E0;-2.467000246E0;7.566105366E0;4.725824669E-2;7.958283355E0
3.632053744E0;-2.567498684E0;7.718647480E0;1.256231871E-2;8.134477625E0
3.634223412E0;-2.682952404E0;7.880761147E0;2.632104978E-2;8.324981841E0
3.636394860E0;-2.821736097E0;8.014759064E0;-2.751746029E-2;8.497017987E0
