"Time (s)";"Acceleration x (m/s^2)";"Acceleration y (m/s^2)";"Acceleration z (m/s^2)";"Absolute acceleration (m/s^2)"
1.782240800E-2;-1.490130305E0;5.634499073E0;8.035696983E0;9.926756476E0
1.994635900E-2;-1.480558991E0;5.653641701E0;8.045268059E0;9.943945773E0
2.215724400E-2;-1.475773335E0;5.658427238E0;8.064410210E0;9.961446571E0
2.433122800E-2;-1.470987678E0;5.657829285E0;8.083553314E0;9.975904528E0
2.650572800E-2;-1.456630826E0;5.634499073E0;8.097909927E0;9.972236377E0
2.867708300E-2;-1.408774376E0;5.610570908E0;8.132007599E0;9.979614158E0
3.085032100E-2;-1.408774376E0;5.586642742E0;8.155936241E0;9.985715715E0
3.302778100E-2;-1.413560033E0;5.600401402E0;8.265407562E0;1.008363079E1
3.518899500E-2;-1.480558991E0;5.672185898E0;8.365307808E0;1.021489709E1
3.736105400E-2;-1.557129383E0;5.738586903E0;8.465208054E0;1.034484311E1
3.953275600E-2;-1.662413478E0;5.766702652E0;8.551349640E0;1.044720339E1
4.170232200E-2;-1.719841242E0;5.737988472E0;8.642276764E0;1.051528950E1
4.387432900E-2;-1.795813441E0;5.690132141E0;8.781061172E0;1.061647705E1
4.604374300E-2;-1.872383714E0;5.708676815E0;8.900103569E0;1.073809365E1
4.821786500E-2;-1.944168448E0;5.775077343E0;9.019146919E0;1.088468284E1
5.039929200E-2;-2.001596212E0;5.866004944E0;9.128618240E0;1.103395090E1
5.256939700E-2;-2.015953064E0;5.927619934E0;9.252447128E0;1.117177348E1
5.474286000E-2;-1.963909149E0;6.099903107E0;9.136993408E0;1.116021530E1
5.691908900E-2;-1.782054663E0;6.172286034E0;9.236893654E0;1.125135717E1
5.907963200E-2;-1.652842283E0;6.090929985E0;9.481559753E0;1.138996449E1
6.125045800E-2;-1.724626899E0;6.104688644E0;9.753743172E0;1.163516511E1
6.341951500E-2;-1.786840320E0;6.209374905E0;9.881759644E0;1.180670609E1
6.559222500E-2;-1.719841242E0;6.252445698E0;9.805189133E0;1.175553763E1
6.776397800E-2;-1.810768485E0;6.285944939E0;9.814760208E0;1.179497792E1
6.993367600E-2;-1.872981906E0;6.233303070E0;9.853045464E0;1.180866772E1
7.210525600E-2;-1.868196249E0;6.161518097E0;9.834501266E0;1.175465345E1
7.427545300E-2;-1.767697692E0;6.095117569E0;9.662816048E0;1.156050290E1
7.644661600E-2;-1.614557028E0;6.023931026E0;9.428917885E0;1.130482339E1
7.861806400E-2;-1.504487276E0;5.967101574E0;9.257830620E0;1.111652873E1
8.079111800E-2;-1.371087432E0;5.905486107E0;9.157930374E0;1.098282002E1
8.295955500E-2;-1.251446247E0;5.857629776E0;9.157930374E0;1.094283478E1
8.513127800E-2;-1.122233868E0;6.010770321E0;9.090332985E0;1.095549736E1
8.730063000E-2;-1.055832982E0;6.221338749E0;9.203991890E0;1.115944917E1
8.947250400E-2;-1.027119160E0;6.130411625E0;9.132805824E0;1.104740072E1
9.164309800E-2;-1.003190875E0;6.068796635E0;8.946763992E0;1.085731415E1
9.381389500E-2;-1.079761267E0;6.035296917E0;8.898907661E0;1.080653741E1
9.598493600E-2;-1.108475089E0;6.011368752E0;8.789435387E0;1.070604716E1
9.815641500E-2;-1.132403374E0;5.973681927E0;8.679366112E0;1.059710381E1
1.003236200E-1;-1.174875975E0;5.930611134E0;8.603393555E0;1.051526807E1
1.024886890E-1;-1.198804140E0;5.825326920E0;8.469993591E0;1.034950997E1
1.046688450E-1;-1.170090318E0;5.682355404E0;8.303692818E0;1.012963912E1
1.068395400E-1;-1.103091240E0;5.548955917E0;8.103892326E0;9.883359393E0
1.090126980E-1;-1.098305583E0;5.414957523E0;7.989634991E0;9.714026324E0
1.111816420E-1;-1.073779106E0;5.281557560E0;7.890332699E0;9.555375551E0
1.133551960E-1;-1.021137118E0;5.176871777E0;7.780860901E0;9.401304099E0
1.155247820E-1;-9.589236975E-1;5.100301266E0;7.695317745E0;9.281730596E0
1.176938910E-1;-8.823533654E-1;5.038686275E0;7.657630444E0;9.209028768E0
1.198638220E-1;-8.201399446E-1;4.962115765E0;7.624131203E0;9.133597264E0
1.220381500E-1;-7.674978375E-1;4.924428940E0;7.586444378E0;9.077069550E0
1.242212850E-1;-6.574280262E-1;4.895715237E0;7.500900745E0;8.981300089E0
1.263922650E-1;-5.521438122E-1;4.843671322E0;7.443472862E0;8.897825741E0
1.285627160E-1;-4.378865361E-1;4.820341110E0;7.372286797E0;8.819186224E0
1.307320170E-1;-3.373879790E-1;4.753342152E0;7.296314240E0;8.714602328E0
1.328997620E-1;-2.751746178E-1;4.677370071E0;7.296912670E0;8.671703776E0
1.350606310E-1;-2.560320199E-1;4.619942188E0;7.316055298E0;8.656447501E0
1.372450180E-1;-2.075773627E-1;4.552943230E0;7.297510624E0;8.603838778E0
1.394142780E-1;-1.549352705E-1;4.514657974E0;7.297510624E0;8.582528932E0
1.415887470E-1;-1.501496136E-1;4.514657974E0;7.335795879E0;8.615020761E0
1.437565130E-1;-1.118644550E-1;4.500301361E0;7.417151928E0;8.676368406E0
1.459292530E-1;-8.315058798E-2;4.481158733E0;7.450651646E0;8.694820732E0
1.481002130E-1;-5.922235921E-2;4.447659016E0;7.460821152E0;8.686140125E0
1.502717920E-1;-7.836493850E-2;4.404588223E0;7.518248558E0;8.713816607E0
1.524402290E-1;-7.357929647E-2;4.347160339E0;7.590033531E0;8.747103860E0
1.546154100E-1;-4.486542568E-2;4.289732933E0;7.609774113E0;8.735701666E0
1.567887000E-1;2.991028363E-3;4.242474556E0;7.624131203E0;8.725020109E0
1.589399860E-1;3.649054468E-2;4.189832687E0;7.662416458E0;8.733192743E0
1.611228870E-1;3.170489892E-2;4.151547432E0;7.749155998E0;8.791232562E0
1.632907540E-1;2.691925503E-2;4.150949001E0;7.810771465E0;8.845295537E0
1.654669830E-1;1.794617064E-2;4.127020836E0;7.849654675E0;8.868466697E0
1.676378420E-1;-1.196411322E-3;4.117449760E0;7.906484127E0;8.914363982E0
1.698160640E-1;-1.196411322E-3;4.112663746E0;7.963912010E0;8.963141136E0
1.719807570E-1;3.589233849E-3;4.031308174E0;7.950153351E0;8.913831767E0
1.741494280E-1;1.794617064E-2;3.969094515E0;7.979465485E0;8.912121114E0
1.763181800E-1;5.623133108E-2;3.907479286E0;7.993822098E0;8.897906949E0
1.784880110E-1;1.040877849E-1;3.897907972E0;8.008178711E0;8.907044801E0
1.806524490E-1;1.328016520E-1;3.893122435E0;8.070392609E0;8.961321076E0
1.828342420E-1;1.232303679E-1;3.878765583E0;8.099106789E0;8.980842886E0
1.850048970E-1;1.328016520E-1;3.869194269E0;8.146963120E0;9.020050368E0
1.871776260E-1;1.136590764E-1;3.873381615E0;8.237890244E0;9.103781587E0
1.893425530E-1;1.040877849E-1;3.902095556E0;8.280961037E0;9.154862079E0
1.914974300E-1;7.537391037E-2;3.892524242E0;8.309675217E0;9.176498701E0
1.936886530E-1;8.973085135E-2;3.887738705E0;8.285746574E0;9.152931779E0
1.958577210E-1;1.519442350E-1;3.859622955E0;8.209176064E0;9.072505059E0
1.980340520E-1;1.710868180E-1;3.873381615E0;8.257032394E0;9.122003058E0
2.001981750E-1;1.854437590E-1;3.887738705E0;8.333602905E0;9.197708356E0
2.023636210E-1;2.428714931E-1;3.911666870E0;8.338388443E0;9.213514318E0
2.045428710E-1;3.146561682E-1;3.893122435E0;8.357531548E0;9.225169070E0
2.067079200E-1;3.290131092E-1;3.906881094E0;8.467600822E0;9.331250355E0
2.088618420E-1;2.620140910E-1;3.969094515E0;8.643473625E0;9.514830475E0
2.110602150E-1;2.428714931E-1;3.997210264E0;8.724829674E0;9.599965067E0
2.132483160E-1;2.524427772E-1;4.011567116E0;8.743971825E0;9.623587759E0
2.154033560E-1;2.715853751E-1;4.001996040E0;8.729615211E0;9.607076177E0
2.175689030E-1;2.763710022E-1;3.978067636E0;8.772686005E0;9.636463189E0
2.197388860E-1;2.428714931E-1;3.963710785E0;8.806185722E0;9.660170636E0
2.219088790E-1;2.141576260E-1;3.992424488E0;8.815756798E0;9.680025036E0
2.240739190E-1;1.615155339E-1;4.073182583E0;8.906085968E0;9.794655221E0
2.262679900E-1;7.058826834E-2;4.149752617E0;8.982057571E0;9.894583756E0
2.284198260E-1;2.273181453E-2;4.197010994E0;9.010173798E0;9.939750997E0
2.305963280E-1;1.316052489E-2;4.225724697E0;8.986245155E0;9.930232848E0
2.327521210E-1;1.794617064E-2;4.240081787E0;8.952746391E0;9.906073065E0
2.349079440E-1;4.666004330E-2;4.221537113E0;8.890532494E0;9.842007965E0
2.371072040E-1;9.930214286E-2;4.240679741E0;8.861818314E0;9.824716251E0
2.392771550E-1;1.375873089E-1;4.250251293E0;8.828319550E0;9.799122021E0
2.414552960E-1;1.280160099E-1;4.298107624E0;8.895318031E0;9.880121463E0
2.436191150E-1;1.040877849E-1;4.321437836E0;8.956933022E0;9.945466725E0
2.457967180E-1;8.015955985E-2;4.374079704E0;8.990432739E0;9.998343846E0
2.479708210E-1;5.084748194E-2;4.417150497E0;8.999405861E0;1.002512393E1
2.501313940E-1;3.589233849E-3;4.421936035E0;8.994620323E0;1.002281028E1
2.523013160E-1;-5.383851007E-2;4.445864677E0;8.994620323E0;1.003353408E1
2.544723160E-1;-1.016949639E-1;4.478765965E0;8.946763992E0;1.000571199E1
2.566407430E-1;-1.399801224E-1;4.526622295E0;8.936594009E0;1.001861349E1
2.588030450E-1;-1.884347796E-1;4.579264164E0;8.965308189E0;1.006885887E1
2.609867300E-1;-2.075773627E-1;4.598406792E0;8.931808472E0;1.004816580E1
2.631566830E-1;-2.219343036E-1;4.607978344E0;8.892925262E0;1.001832516E1
2.653304200E-1;-2.745763958E-1;4.636692047E0;8.888139725E0;1.002862568E1
2.675029970E-1;-2.979064286E-1;4.627120972E0;8.859425545E0;9.999420869E0
2.696901400E-1;-3.266202807E-1;4.646263599E0;8.849854469E0;1.000071849E1
2.718417310E-1;-3.792623878E-1;4.674378872E0;8.811569214E0;9.981854027E0
2.740124160E-1;-4.989035130E-1;4.660022259E0;8.907281876E0;1.006500783E1
2.761779230E-1;-5.754738450E-1;4.698307037E0;8.882756233E0;1.006521820E1
2.783495760E-1;-5.946164131E-1;4.736592293E0;8.748757362E0;9.966425167E0
2.805114810E-1;-6.233302951E-1;4.779663086E0;8.590831757E0;9.850690846E0
2.826948610E-1;-6.334998012E-1;4.803591251E0;8.466404915E0;9.754784626E0
2.848655560E-1;-6.334998012E-1;4.841876507E0;8.385048866E0;9.703305344E0
2.870402890E-1;-6.526423693E-1;4.856233597E0;8.380263329E0;9.707613521E0
2.892034470E-1;-6.287141442E-1;4.847260475E0;8.346763611E0;9.672625205E0
2.913523420E-1;-6.287141442E-1;4.856233597E0;8.356334686E0;9.685381542E0
2.935497800E-1;-6.430711150E-1;4.856233597E0;8.332406998E0;9.665689400E0
2.957173940E-1;-6.861419082E-1;4.837090969E0;8.327621460E0;9.654922006E0
2.978961860E-1;-7.052844763E-1;4.841876507E0;8.303692818E0;9.638075986E0
3.000593730E-1;-7.190431952E-1;4.813162804E0;8.308478355E0;9.628830244E0
3.022193060E-1;-7.244270444E-1;4.817948341E0;8.298907280E0;9.623371696E0
3.044057170E-1;-7.244270444E-1;4.837090969E0;8.246265411E0;9.587655439E0
3.065685800E-1;-7.052844763E-1;4.832903385E0;8.207980156E0;9.551194667E0
3.087222050E-1;-6.765705943E-1;4.794618607E0;8.194221497E0;9.517950477E0
3.109119020E-1;-6.430711150E-1;4.756333351E0;8.170292854E0;9.475754995E0
3.130643180E-1;-6.047859192E-1;4.737190723E0;8.160721779E0;9.455375292E0
3.152665480E-1;-5.712863803E-1;4.698905468E0;8.161319733E0;9.434681791E0
3.174291550E-1;-5.521438122E-1;4.680361271E0;8.151748657E0;9.416031573E0
3.196059530E-1;-5.234299302E-1;4.675575256E0;8.170890808E0;9.428596898E0
3.217709620E-1;-5.090730190E-1;4.680361271E0;8.170890808E0;9.430185235E0
3.239433260E-1;-5.234299302E-1;4.704289436E0;8.190033913E0;9.459438328E0
3.261140820E-1;-5.808576941E-1;4.761118889E0;8.251648903E0;9.544388841E0
3.282848690E-1;-5.282155871E-1;4.674977303E0;8.257032394E0;9.503315656E0
3.304548100E-1;-4.803591371E-1;4.613361835E0;8.181060791E0;9.404446182E0
3.326325960E-1;-4.037888348E-1;4.546362877E0;8.157132149E0;9.347259798E0
3.348257220E-1;-3.463610709E-1;4.513461590E0;8.191229820E0;9.358821907E0
3.369687580E-1;-3.320041299E-1;4.518247128E0;8.210372925E0;9.377366763E0
3.391386190E-1;-3.224328458E-1;4.532006264E0;8.281558990E0;9.446018369E0
3.413032500E-1;-3.320041299E-1;4.570291042E0;8.362915039E0;9.536043986E0
3.434773430E-1;-3.272185028E-1;4.584648132E0;8.401200294E0;9.576337339E0
3.456371430E-1;-3.224328458E-1;4.599005222E0;8.434102058E0;9.611913936E0
3.478085510E-1;-3.080759048E-1;4.603790760E0;8.472386360E0;9.647338014E0
3.499911980E-1;-2.889333367E-1;4.579862595E0;8.468199730E0;9.631668107E0
3.521647110E-1;-2.697907388E-1;4.555934429E0;8.463413239E0;9.615544145E0
3.543368410E-1;-2.602194548E-1;4.579862595E0;8.496912956E0;9.656106117E0
3.565030200E-1;-2.602194548E-1;4.575077057E0;8.520841599E0;9.674904950E0
3.586725350E-1;-2.554338276E-1;4.613361835E0;8.539385796E0;9.709246296E0
3.608494350E-1;-2.697907388E-1;4.613361835E0;8.572885513E0;9.739109841E0
3.630200380E-1;-2.745763958E-1;4.636692047E0;8.639883995E0;9.809276262E0
3.651904270E-1;-2.554338276E-1;4.655834675E0;8.696713448E0;9.867870477E0
3.673611020E-1;-2.362912297E-1;4.665405750E0;8.696713448E0;9.871913145E0
3.695397320E-1;-2.362912297E-1;4.660620213E0;8.696713448E0;9.869652431E0
3.717158900E-1;-2.506481707E-1;4.646263599E0;8.715856552E0;9.880118692E0
3.738732590E-1;-2.650051117E-1;4.631906509E0;8.726025581E0;9.882727765E0
3.760434450E-1;-2.937189937E-1;4.641477585E0;8.734998703E0;9.895948027E0
3.782089520E-1;-3.128615618E-1;4.660620213E0;8.749356270E0;9.918190271E0
3.803755170E-1;-3.320041299E-1;4.660620213E0;8.773283958E0;9.939925499E0
3.825567000E-1;-3.320041299E-1;4.660620213E0;8.758927345E0;9.927256204E0
3.847274570E-1;-3.367897868E-1;4.674977303E0;8.734998703E0;9.913074320E0
3.869010710E-1;-3.511467278E-1;4.674977303E0;8.749356270E0;9.926225463E0
3.890726410E-1;-3.655036688E-1;4.679762840E0;8.725427628E0;9.907919078E0
3.912532030E-1;-3.792623878E-1;4.646263599E0;8.720642090E0;9.888437887E0
3.934134510E-1;-3.840480447E-1;4.631906509E0;8.659027100E0;9.827553161E0
3.955825700E-1;-3.792623878E-1;4.627120972E0;8.644669533E0;9.812461453E0
3.977504370E-1;-3.696911037E-1;4.622334957E0;8.635098457E0;9.801406906E0
3.999214050E-1;-3.601198196E-1;4.612763882E0;8.606385231E0;9.771240641E0
4.020938910E-1;-3.559323549E-1;4.631906509E0;8.544171333E0;9.725436213E0
4.042666820E-1;-3.272185028E-1;4.636692047E0;8.544171333E0;9.726708018E0
4.064338680E-1;-3.128615618E-1;4.660620213E0;8.529814720E0;9.725070811E0
4.085955090E-1;-3.320041299E-1;4.689334393E0;8.510073662E0;9.722213612E0
4.107793370E-1;-3.750749528E-1;4.789832592E0;8.519046783E0;9.780456818E0
4.129500220E-1;-3.320041299E-1;4.718048096E0;8.481359482E0;9.711007323E0
4.151260370E-1;-2.889333367E-1;4.651647091E0;8.414958954E0;9.619399011E0
4.172918290E-1;-2.602194548E-1;4.579862595E0;8.348558426E0;9.525821925E0
4.194615060E-1;-2.602194548E-1;4.584648132E0;8.329415321E0;9.511354912E0
4.216345410E-1;-2.889333367E-1;4.594219685E0;8.338987350E0;9.525179632E0
4.238159080E-1;-3.128615618E-1;4.622933388E0;8.310273170E0;9.514727302E0
4.259620250E-1;-3.224328458E-1;4.675575256E0;8.276175499E0;9.511048723E0
4.281466980E-1;-3.272185028E-1;4.704289436E0;8.300103188E0;9.546157550E0
4.303139330E-1;-3.702892959E-1;4.713860512E0;8.314460754E0;9.564928265E0
4.324936930E-1;-3.798605800E-1;4.708476543E0;8.347960472E0;9.591792818E0
4.346629540E-1;-3.990031779E-1;4.713262558E0;8.357531548E0;9.603248463E0
4.368171590E-1;-3.894318938E-1;4.703691006E0;8.347960472E0;9.589828482E0
4.390005400E-1;-4.181457460E-1;4.694119930E0;8.352746010E0;9.590514777E0
4.411695450E-1;-4.325026870E-1;4.708476543E0;8.352746010E0;9.598186070E0
4.433489790E-1;-4.325026870E-1;4.713262558E0;8.343173981E0;9.592208014E0
4.455184530E-1;-4.468596280E-1;4.722833633E0;8.333004951E0;9.588733627E0
4.476562100E-1;-4.564309120E-1;4.737190723E0;8.342576027E0;9.604575987E0
4.498554780E-1;-4.420739710E-1;4.741976261E0;8.371290207E0;9.631213215E0
4.520226340E-1;-4.325026870E-1;4.761118889E0;8.380861282E0;9.648530846E0
4.542046200E-1;-4.277170599E-1;4.789832592E0;8.404789925E0;9.683281046E0
4.563632920E-1;-4.133601189E-1;4.775475979E0;8.452646255E0;9.717163482E0
4.585231330E-1;-3.942175210E-1;4.785047054E0;8.486145973E0;9.750218266E0
4.607105710E-1;-3.798605800E-1;4.775475979E0;8.529216766E0;9.782484528E0
4.628815010E-1;-3.607180119E-1;4.780261517E0;8.553144455E0;9.804962913E0
4.650553590E-1;-3.607180119E-1;4.785047054E0;8.619544983E0;9.865259678E0
4.672179880E-1;-3.511467278E-1;4.785047054E0;8.633902550E0;9.877461849E0
4.693736270E-1;-3.367897868E-1;4.765904427E0;8.648857117E0;9.880789533E0
4.715647890E-1;-3.559323549E-1;4.761118889E0;8.696115494E0;9.920552686E0
4.737344470E-1;-3.272185028E-1;4.746761799E0;8.706285477E0;9.921604020E0
4.759105240E-1;-3.224328458E-1;4.722833633E0;8.768498421E0;9.964722024E0
4.780712910E-1;-3.272185028E-1;4.712664127E0;8.801998138E0;9.989566875E0
4.802271430E-1;-3.415754437E-1;4.698307037E0;8.830712318E0;1.000860844E1
4.824169120E-1;-3.415754437E-1;4.698307037E0;8.821140289E0;1.000016394E1
4.845883190E-1;-3.559323549E-1;4.683950424E0;8.854640007E0;1.002350882E1
4.867603870E-1;-3.559323549E-1;4.693521500E0;8.830712318E0;1.000686324E1
4.889231690E-1;-3.415754437E-1;4.698307037E0;8.821140289E0;1.000016394E1
4.911211460E-1;-3.744767308E-1;4.679164886E0;8.830712318E0;1.000081481E1
4.932739170E-1;-3.744767308E-1;4.674378872E0;8.840283394E0;1.000703059E1
4.954476230E-1;-3.840480447E-1;4.669593334E0;8.873783112E0;1.003477063E1
4.976122350E-1;-3.888336718E-1;4.660022259E0;8.873783112E0;1.003050476E1
4.997894710E-1;-3.984049559E-1;4.650450706E0;8.892925262E0;1.004338280E1
5.019714680E-1;-3.936193287E-1;4.645665169E0;8.902496338E0;1.004945681E1
5.041282060E-1;-4.223332107E-1;4.698307037E0;8.897710800E0;1.007083471E1
5.062983210E-1;-4.271188378E-1;4.741377831E0;8.949754715E0;1.013712009E1
5.084660160E-1;-4.079762697E-1;4.679164886E0;8.940781593E0;1.009943583E1
5.106372390E-1;-3.840480447E-1;4.607379913E0;8.883354187E0;1.001446075E1
5.127989620E-1;-3.888336718E-1;4.607379913E0;8.873783112E0;1.000615650E1
5.149789960E-1;-3.984049559E-1;4.612165451E0;8.864211082E0;1.000025174E1
5.171286950E-1;-4.031906128E-1;4.636094093E0;8.825926781E0;9.977620691E0
5.193142000E-1;-3.984049559E-1;4.674378872E0;8.816354752E0;9.986824092E0
5.214796770E-1;-3.942175210E-1;4.703093052E0;8.797212601E0;9.983258048E0
5.236543290E-1;-3.846462369E-1;4.722235680E0;8.801998138E0;9.996130940E0
5.258113120E-1;-3.702892959E-1;4.736592293E0;8.796614647E0;9.997642220E0
5.279859030E-1;-3.320041299E-1;4.703093052E0;8.801998138E0;9.985213179E0
5.301672690E-1;-3.511467278E-1;4.679164886E0;8.773283958E0;9.949291406E0
5.323402630E-1;-3.702892959E-1;4.683950424E0;8.734998703E0;9.918503319E0
5.345067980E-1;-3.750749528E-1;4.688735962E0;8.706285477E0;9.895672435E0
5.366807380E-1;-3.894318938E-1;4.712664127E0;8.663214684E0;9.869759320E0
5.388498160E-1;-4.277170599E-1;4.717449665E0;8.615358353E0;9.831666836E0
5.410209580E-1;-4.229314029E-1;4.741377831E0;8.577073097E0;9.809470812E0
5.431907370E-1;-4.372883439E-1;4.789234638E0;8.590831757E0;9.845322736E0
5.453635790E-1;-4.660021961E-1;4.870590687E0;8.581260681E0;9.878149956E0
5.475354340E-1;-4.133601189E-1;4.813162804E0;8.576474190E0;9.843440064E0
5.497069420E-1;-4.325026870E-1;4.741976261E0;8.534002304E0;9.772542799E0
5.518762230E-1;-4.229314029E-1;4.708476543E0;8.500502586E0;9.726621538E0
5.540481800E-1;-4.420739710E-1;4.694119930E0;8.519644737E0;9.737275685E0
5.562174110E-1;-4.468596280E-1;4.722833633E0;8.514859200E0;9.747187709E0
5.583891230E-1;-4.755735099E-1;4.741976261E0;8.486145973E0;9.732789040E0
5.605591560E-1;-4.612165689E-1;4.761118889E0;8.476573944E0;9.733102261E0
5.627304610E-1;-4.372883439E-1;4.789832592E0;8.481359482E0;9.750239793E0
5.649016850E-1;-4.325026870E-1;4.799404144E0;8.471190453E0;9.745891770E0
5.670759520E-1;-3.894318938E-1;4.794618607E0;8.499904633E0;9.766698702E0
5.692504600E-1;-4.037888348E-1;4.780261517E0;8.490931511E0;9.752428596E0
5.714175750E-1;-3.846462369E-1;4.761118889E0;8.486145973E0;9.738114770E0
5.735844350E-1;-3.942175210E-1;4.761118889E0;8.462217331E0;9.717653147E0
5.757542350E-1;-3.942175210E-1;4.780261517E0;8.447860718E0;9.714559091E0
5.779233130E-1;-4.037888348E-1;4.794618607E0;8.462217331E0;9.734502307E0
5.800876290E-1;-4.085744619E-1;4.813760757E0;8.490332603E0;9.768570696E0
5.822691070E-1;-3.846462369E-1;4.794618607E0;8.533403397E0;9.795677304E0
5.844405860E-1;-3.894318938E-1;4.765904427E0;8.538787842E0;9.786541780E0
5.866134170E-1;-3.942175210E-1;4.756333351E0;8.553144455E0;9.794610481E0
5.887845610E-1;-4.181457460E-1;4.794618607E0;8.605188370E0;9.859638955E0
5.909586320E-1;-4.133601189E-1;4.780261517E0;8.633902550E0;9.877552328E0
5.931232340E-1;-4.420739710E-1;4.713262558E0;8.658429146E0;9.868063063E0
5.952936130E-1;-4.037888348E-1;4.670191765E0;8.629714966E0;9.820678028E0
5.974634040E-1;-3.984049559E-1;4.655834675E0;8.648857117E0;9.830475698E0
5.996348400E-1;-4.127618968E-1;4.641477585E0;8.668000221E0;9.841133796E0
6.018007440E-1;-3.942175210E-1;4.665405750E0;8.682356834E0;9.864316422E0
6.039782650E-1;-3.942175210E-1;4.718048096E0;8.672785759E0;9.880920914E0
6.061496420E-1;-3.990031779E-1;4.718048096E0;8.701499939E0;9.906325381E0
6.083212220E-1;-3.702892959E-1;4.718048096E0;8.725427628E0;9.926236914E0
6.104890170E-1;-3.463610709E-1;4.698905468E0;8.749356270E0;9.937349432E0
6.126600890E-1;-3.272185028E-1;4.670191765E0;8.782855988E0;9.952704274E0
6.148303580E-1;-3.176472187E-1;4.646263599E0;8.792427063E0;9.949645162E0
6.169964240E-1;-3.266202807E-1;4.636692047E0;8.792427063E0;9.945469703E0
6.191903120E-1;-3.266202807E-1;4.631906509E0;8.787641525E0;9.939008114E0
6.213644450E-1;-3.320041299E-1;4.651049137E0;8.797212601E0;9.956577442E0
6.235495250E-1;-3.415754437E-1;4.646263599E0;8.773283958E0;9.933526596E0
6.256988060E-1;-3.415754437E-1;4.674977303E0;8.768498421E0;9.942768785E0
6.278693090E-1;-3.224328458E-1;4.674977303E0;8.758927345E0;9.933689343E0
6.300365040E-1;-3.080759048E-1;4.684548378E0;8.744570732E0;9.925090506E0
6.322077480E-1;-3.080759048E-1;4.684548378E0;8.749356270E0;9.929307096E0
6.343666940E-1;-2.985046208E-1;4.674977303E0;8.720642090E0;9.899197758E0
6.365430050E-1;-3.080759048E-1;4.679762840E0;8.725427628E0;9.905966802E0
6.387253170E-1;-2.889333367E-1;4.674977303E0;8.706285477E0;9.886268358E0
6.408991240E-1;-2.985046208E-1;4.684548378E0;8.687142372E0;9.874236229E0
6.430631860E-1;-2.985046208E-1;4.674977303E0;8.668000221E0;9.852854694E0
6.452137800E-1;-2.937189937E-1;4.665405750E0;8.639286041E0;9.822909190E0
6.473821550E-1;-2.937189937E-1;4.665405750E0;8.653642654E0;9.835538259E0
6.495639090E-1;-2.745763958E-1;4.660620213E0;8.648857117E0;9.828504586E0
6.517483470E-1;-2.745763958E-1;4.660620213E0;8.634500504E0;9.815873466E0
6.539203440E-1;-2.937189937E-1;4.660620213E0;8.601000786E0;9.786974309E0
6.560895030E-1;-2.841476798E-1;4.666004181E0;8.577073097E0;9.768240263E0
6.582421730E-1;-2.841476798E-1;4.661218643E0;8.563314438E0;9.753873759E0
6.604338230E-1;-2.937189937E-1;4.675575256E0;8.567501068E0;9.764699144E0
6.626039790E-1;-2.841476798E-1;4.661218643E0;8.558527946E0;9.749671777E0
6.647799130E-1;-3.032902777E-1;4.666004181E0;8.548956871E0;9.744138935E0
6.669454910E-1;-3.080759048E-1;4.685146809E0;8.553144455E0;9.757140536E0
6.691172960E-1;-3.080759048E-1;4.680361271E0;8.548358917E0;9.750647802E0
6.712878470E-1;-3.176472187E-1;4.698905468E0;8.553144455E0;9.764061267E0
6.734569550E-1;-3.224328458E-1;4.679762840E0;8.543573380E0;9.746629637E0
6.756282710E-1;-3.367897868E-1;4.661218643E0;8.539385796E0;9.734551678E0
6.777975730E-1;-3.176472187E-1;4.666004181E0;8.548358917E0;9.744071785E0
6.799685620E-1;-3.080759048E-1;4.670789719E0;8.525029182E0;9.725600749E0
6.821433470E-1;-3.176472187E-1;4.689932346E0;8.514859200E0;9.726211614E0
6.843135030E-1;-3.032902777E-1;4.747360229E0;8.490931511E0;9.732693978E0
6.864871590E-1;-3.080759048E-1;4.723432064E0;8.481359482E0;9.712835831E0
6.886645880E-1;-2.985046208E-1;4.689932346E0;8.490931511E0;9.704663227E0
6.908270530E-1;-2.985046208E-1;4.661218643E0;8.477172852E0;9.678766647E0
6.929984300E-1;-3.128615618E-1;4.656432629E0;8.467600822E0;9.668531991E0
6.951653200E-1;-3.128615618E-1;4.680361271E0;8.462815285E0;9.675893061E0
6.973392910E-1;-2.985046208E-1;4.704289436E0;8.467002869E0;9.690695625E0
6.995098730E-1;-2.889333367E-1;4.737788677E0;8.457431793E0;9.698364633E0
7.016807110E-1;-2.650051117E-1;4.723432064E0;8.447860718E0;9.682323527E0
7.038529930E-1;-2.458625287E-1;4.718646049E0;8.467002869E0;9.696195465E0
7.060240140E-1;-2.315055877E-1;4.704289436E0;8.467600822E0;9.689385823E0
7.081934790E-1;-2.506481707E-1;4.709074974E0;8.486145973E0;9.708392508E0
7.103651590E-1;-2.650051117E-1;4.718646049E0;8.452646255E0;9.684166302E0
7.125349800E-1;-2.841476798E-1;4.728217602E0;8.452646255E0;9.689376157E0
7.147032440E-1;-3.224328458E-1;4.728217602E0;8.452646255E0;9.690574459E0
7.168634920E-1;-2.937189937E-1;4.728217602E0;8.457431793E0;9.693836448E0
7.190475030E-1;-3.128615618E-1;4.737788677E0;8.457431793E0;9.699106992E0
7.212155320E-1;-3.128615618E-1;4.718646049E0;8.457431793E0;9.689770660E0
7.233775090E-1;-2.937189937E-1;4.709074974E0;8.443074226E0;9.671978099E0
7.255479510E-1;-2.937189937E-1;4.694717884E0;8.443673134E0;9.665519275E0
7.277330400E-1;-2.937189937E-1;4.699503899E0;8.438887596E0;9.663665536E0
7.299039680E-1;-2.937189937E-1;4.685146809E0;8.429315567E0;9.648327958E0
7.320771150E-1;-2.793620527E-1;4.713860512E0;8.438288689E0;9.669707342E0
7.342438530E-1;-2.697907388E-1;4.694717884E0;8.434102058E0;9.656461080E0
7.364028700E-1;-2.841476798E-1;4.713860512E0;8.433503151E0;9.665671018E0
7.385860570E-1;-2.745763958E-1;4.723432064E0;8.433503151E0;9.670066083E0
7.407546350E-1;-2.506481707E-1;4.723432064E0;8.452646255E0;9.686117059E0
7.429288410E-1;-2.697907388E-1;4.713860512E0;8.471788406E0;9.698683765E0
7.450962090E-1;-2.793620527E-1;4.718646049E0;8.490931511E0;9.718002965E0
7.472631000E-1;-2.745763958E-1;4.704289436E0;8.481359482E0;9.702535234E0
7.494414130E-1;-2.985046208E-1;4.704289436E0;8.486145973E0;9.707425899E0
7.516112850E-1;-2.889333367E-1;4.709074974E0;8.495717049E0;9.717822686E0
7.537838930E-1;-3.032902777E-1;4.704289436E0;8.471788406E0;9.695025678E0
7.559461140E-1;-3.128615618E-1;4.704289436E0;8.490931511E0;9.712061541E0
7.580973090E-1;-3.080759048E-1;4.685146809E0;8.462815285E0;9.678055276E0
7.602902090E-1;-3.080759048E-1;4.685146809E0;8.501100540E0;9.711550946E0
7.624435810E-1;-3.128615618E-1;4.703691006E0;8.519644737E0;9.736885430E0
7.646434100E-1;-3.272185028E-1;4.698905468E0;8.519644737E0;9.735046533E0
7.668042280E-1;-3.320041299E-1;4.684548378E0;8.514859200E0;9.724096227E0
7.689719220E-1;-3.176472187E-1;4.679762840E0;8.529216766E0;9.733890211E0
7.711511610E-1;-3.272185028E-1;4.670191765E0;8.520243645E0;9.721744434E0
7.733217960E-1;-3.224328458E-1;4.694119930E0;8.538787842E0;9.749339602E0
7.754964890E-1;-3.272185028E-1;4.698905468E0;8.524430275E0;9.739234881E0
7.776614670E-1;-3.463610709E-1;4.694119930E0;8.519644737E0;9.733399938E0
7.798296690E-1;-3.655036688E-1;4.689334393E0;8.548358917E0;9.756940615E0
7.819945150E-1;-3.511467278E-1;4.689334393E0;8.562715530E0;9.768994745E0
7.841747620E-1;-3.415754437E-1;4.670191765E0;8.586644173E0;9.780481739E0
7.863421720E-1;-3.176472187E-1;4.670191765E0;8.586644173E0;9.779675303E0
7.885033560E-1;-3.128615618E-1;4.674977303E0;8.596215248E0;9.790209994E0
7.906883520E-1;-3.176472187E-1;4.698905468E0;8.610571861E0;9.814405745E0
7.928609800E-1;-3.032902777E-1;4.694119930E0;8.610571861E0;9.811661159E0
7.950338130E-1;-3.032902777E-1;4.713262558E0;8.591429710E0;9.804054947E0
7.972014660E-1;-3.128615618E-1;4.713262558E0;8.572287560E0;9.787586030E0
7.993752120E-1;-3.080759048E-1;4.718048096E0;8.577073097E0;9.793930340E0
8.015572290E-1;-3.415754437E-1;4.727619171E0;8.577073097E0;9.799655082E0
8.037118720E-1;-3.320041299E-1;4.722833633E0;8.601000786E0;9.817973253E0
8.058817130E-1;-3.367897868E-1;4.722833633E0;8.591429710E0;9.809752767E0
8.080498350E-1;-3.415754437E-1;4.703691006E0;8.581858635E0;9.792327634E0
8.102240290E-1;-3.463610709E-1;4.708476543E0;8.601000786E0;9.811571325E0
8.123845100E-1;-3.511467278E-1;4.713262558E0;8.605786324E0;9.818233355E0
8.145694980E-1;-3.655036688E-1;4.698905468E0;8.620143890E0;9.824468750E0
8.167382710E-1;-3.798605800E-1;4.703691006E0;8.624929428E0;9.831500942E0
8.189129640E-1;-3.798605800E-1;4.698905468E0;8.596215248E0;9.804025869E0
8.210799750E-1;-3.846462369E-1;4.679762840E0;8.596215248E0;9.795052300E0
8.232514840E-1;-4.133601189E-1;4.684548378E0;8.572287560E0;9.777523925E0
8.254233090E-1;-4.133601189E-1;4.698905468E0;8.601000786E0;9.809576632E0
8.275952250E-1;-4.277170599E-1;4.689334393E0;8.586644173E0;9.793020835E0
8.297645460E-1;-4.420739710E-1;4.694119930E0;8.581858635E0;9.791756173E0
8.319357800E-1;-4.420739710E-1;4.689334393E0;8.586644173E0;9.793658386E0
8.340985410E-1;-4.468596280E-1;4.698905468E0;8.601000786E0;9.811045339E0
8.362500820E-1;-4.372883439E-1;4.689334393E0;8.596215248E0;9.801836294E0
8.384484050E-1;-4.564309120E-1;4.694119930E0;8.572287560E0;9.784028061E0
8.406184380E-1;-4.516452849E-1;4.698905468E0;8.567501068E0;9.781910376E0
8.427969260E-1;-4.516452849E-1;4.722833633E0;8.557929993E0;9.785055276E0
8.449618120E-1;-4.660021961E-1;4.741976261E0;8.567501068E0;9.803344912E0
8.471268620E-1;-4.420739710E-1;4.703691006E0;8.567501068E0;9.783772944E0
8.493040560E-1;-4.414757788E-1;4.627120972E0;8.520243645E0;9.705653049E0
8.514724630E-1;-4.510470629E-1;4.598406792E0;8.529814720E0;9.700851903E0
8.536460570E-1;-4.414757788E-1;4.598406792E0;8.534600258E0;9.704619902E0
8.558127450E-1;-4.558327198E-1;4.636692047E0;8.529814720E0;9.719281649E0
8.579787100E-1;-4.660021961E-1;4.679762840E0;8.514859200E0;9.727289729E0
8.601520890E-1;-4.325026870E-1;4.718048096E0;8.529216766E0;9.756770729E0
8.623155510E-1;-4.133601189E-1;4.741976261E0;8.538787842E0;9.775893988E0
8.644990440E-1;-3.559323549E-1;4.737190723E0;8.538787842E0;9.771313197E0
8.666751210E-1;-3.559323549E-1;4.708476543E0;8.510073662E0;9.732306660E0
8.688651340E-1;-3.798605800E-1;4.684548378E0;8.490931511E0;9.704906259E0
8.710135910E-1;-3.894318938E-1;4.684548378E0;8.510073662E0;9.722037052E0
8.731832390E-1;-3.990031779E-1;4.670191765E0;8.486145973E0;9.694563844E0
8.753476780E-1;-4.037888348E-1;4.674977303E0;8.490931511E0;9.701256420E0
8.775292980E-1;-3.894318938E-1;4.694119930E0;8.471788406E0;9.693173780E0
8.797181400E-1;-3.750749528E-1;4.718048096E0;8.481359482E0;9.712575236E0
8.818672690E-1;-3.655036688E-1;4.746761799E0;8.505288124E0;9.747064511E0
8.840377920E-1;-3.511467278E-1;4.737190723E0;8.529216766E0;9.762777198E0
8.862018130E-1;-3.463610709E-1;4.737190723E0;8.534002304E0;9.766787459E0
8.883835050E-1;-3.702892959E-1;4.722833633E0;8.543573380E0;9.769079679E0
8.905710350E-1;-3.655036688E-1;4.698905468E0;8.543573380E0;9.757353720E0
8.927211510E-1;-3.846462369E-1;4.698905468E0;8.548358917E0;9.762279729E0
8.948915620E-1;-3.846462369E-1;4.684548378E0;8.553144455E0;9.759571010E0
8.970579130E-1;-3.463610709E-1;4.694119930E0;8.548358917E0;9.758543338E0
8.992350060E-1;-3.559323549E-1;4.698905468E0;8.557929993E0;9.769573491E0
9.014120290E-1;-3.702892959E-1;4.698905468E0;8.553144455E0;9.765915565E0
9.035753600E-1;-3.511467278E-1;4.703691006E0;8.548358917E0;9.763321836E0
9.057470310E-1;-3.559323549E-1;4.722833633E0;8.567501068E0;9.789480064E0
9.079202190E-1;-3.511467278E-1;4.713262558E0;8.562715530E0;9.780503321E0
9.100878820E-1;-3.463610709E-1;4.713262558E0;8.596215248E0;9.809675149E0
9.122591160E-1;-3.559323549E-1;4.718048096E0;8.572287560E0;9.791362504E0
9.144315400E-1;-3.463610709E-1;4.708476543E0;8.572287560E0;9.786410545E0
9.166005270E-1;-3.511467278E-1;4.713262558E0;8.581858635E0;9.797267251E0
9.187732870E-1;-3.655036688E-1;4.718048096E0;8.586644173E0;9.804286252E0
9.209384480E-1;-3.655036688E-1;4.718048096E0;8.577073097E0;9.795904944E0
9.230978110E-1;-3.702892959E-1;4.698905468E0;8.586644173E0;9.795268496E0
9.252736120E-1;-3.894318938E-1;4.684548378E0;8.586644173E0;9.789132181E0
9.274553350E-1;-3.942175210E-1;4.689334393E0;8.577073097E0;9.783222752E0
9.296293550E-1;-3.990031779E-1;4.679762840E0;8.557929993E0;9.762046381E0
9.317982300E-1;-3.990031779E-1;4.679762840E0;8.543573380E0;9.749463055E0
9.339643170E-1;-3.894318938E-1;4.679762840E0;8.543573380E0;9.749076035E0
9.361307810E-1;-3.894318938E-1;4.689334393E0;8.514859200E0;9.728532337E0
9.383082710E-1;-3.894318938E-1;4.703691006E0;8.534002304E0;9.752208037E0
9.404806540E-1;-3.942175210E-1;4.708476543E0;8.510073662E0;9.733782027E0
9.426530680E-1;-3.846462369E-1;4.703691006E0;8.514859200E0;9.735270361E0
9.448202850E-1;-3.750749528E-1;4.694119930E0;8.514859200E0;9.730275964E0
9.469841840E-1;-3.702892959E-1;4.694119930E0;8.510073662E0;9.725905090E0
9.491657850E-1;-3.607180119E-1;4.694119930E0;8.524430275E0;9.738110233E0
9.513359710E-1;-3.367897868E-1;4.685146809E0;8.510073662E0;9.720359135E0
9.535094530E-1;-3.415754437E-1;4.713262558E0;8.524430275E0;9.746662467E0
9.556741970E-1;-3.463610709E-1;4.694119930E0;8.548358917E0;9.758543338E0
9.578412810E-1;-3.367897868E-1;4.698905468E0;8.534002304E0;9.747940053E0
9.600271120E-1;-3.320041299E-1;4.698905468E0;8.538787842E0;9.751965809E0
9.621895670E-1;-3.463610709E-1;4.694119930E0;8.534002304E0;9.745969589E0
9.643631110E-1;-3.272185028E-1;4.703691006E0;8.557929993E0;9.770872366E0
9.665297480E-1;-3.415754437E-1;4.689334393E0;8.553144455E0;9.760266948E0
9.687011250E-1;-3.559323549E-1;4.694119930E0;8.553144455E0;9.763079936E0
9.708757560E-1;-3.702892959E-1;4.679762840E0;8.548358917E0;9.752524524E0
9.730439490E-1;-3.750749528E-1;4.684548378E0;8.572287560E0;9.775980193E0
9.752152950E-1;-3.702892959E-1;4.679762840E0;8.577073097E0;9.777703070E0
9.773782390E-1;-3.750749528E-1;4.679762840E0;8.586644173E0;9.786282216E0
9.795290560E-1;-3.942175210E-1;4.670191765E0;8.605786324E0;9.799268178E0
9.817285590E-1;-4.085744619E-1;4.674977303E0;8.605786324E0;9.802137732E0
9.839006890E-1;-3.942175210E-1;4.674977303E0;8.610571861E0;9.805751782E0
9.860764910E-1;-4.037888348E-1;4.665405750E0;8.601000786E0;9.793174703E0
9.882382850E-1;-4.127618968E-1;4.665405750E0;8.639286041E0;9.827189145E0
9.903984200E-1;-4.223332107E-1;4.660620213E0;8.629714966E0;9.816910232E0
9.925807630E-1;-4.079762697E-1;4.641477585E0;8.611170769E0;9.790915218E0
9.947507260E-1;-4.085744619E-1;4.665405750E0;8.639286041E0;9.827014155E0
9.969252360E-1;-4.175475538E-1;4.646263599E0;8.639286041E0;9.818318323E0
9.990941820E-1;-4.127618968E-1;4.651049137E0;8.634500504E0;9.816171830E0
1.001264428E0;-4.223332107E-1;4.641477585E0;8.629714966E0;9.807836658E0
1.003438674E0;-4.079762697E-1;4.636692047E0;8.620741844E0;9.797068323E0
1.005605686E0;-4.175475538E-1;4.641477585E0;8.644071579E0;9.820266473E0
1.007766596E0;-3.984049559E-1;4.622334957E0;8.611170769E0;9.781460472E0
1.009945337E0;-3.936193287E-1;4.646263599E0;8.634500504E0;9.813118799E0
1.012107416E0;-3.942175210E-1;4.646263599E0;8.610571861E0;9.792094805E0
1.014289606E0;-3.702892959E-1;4.655834675E0;8.610571861E0;9.795706124E0
1.016438369E0;-3.846462369E-1;4.660620213E0;8.605786324E0;9.794329571E0
1.018623356E0;-3.702892959E-1;4.674977303E0;8.620143890E0;9.813226158E0
1.020789076E0;-3.559323549E-1;4.698905468E0;8.644071579E0;9.845119293E0
1.022965042E0;-3.559323549E-1;4.703691006E0;8.624929428E0;9.830605503E0
1.025134170E0;-3.463610709E-1;4.713262558E0;8.648857117E0;9.855837831E0
1.027305272E0;-3.272185028E-1;4.698905468E0;8.634500504E0;9.835719775E0
1.029476313E0;-3.320041299E-1;4.698905468E0;8.644071579E0;9.844283255E0
1.031646774E0;-3.272185028E-1;4.708476543E0;8.634500504E0;9.840295842E0
1.033815546E0;-3.272185028E-1;4.708476543E0;8.644071579E0;9.848695181E0
1.035979802E0;-3.272185028E-1;4.698905468E0;8.639286041E0;9.839921130E0
1.038159917E0;-3.320041299E-1;4.698905468E0;8.624929428E0;9.827479177E0
1.040331599E0;-3.176472187E-1;4.698905468E0;8.644071579E0;9.843809517E0
1.042503779E0;-3.080759048E-1;4.727619171E0;8.658429146E0;9.869837337E0
1.044672928E0;-3.128615618E-1;4.718048096E0;8.658429146E0;9.865407010E0
1.046840938E0;-3.224328458E-1;4.722833633E0;8.672785759E0;9.880603893E0
1.049004430E0;-2.985046208E-1;4.718048096E0;8.687142372E0;9.890173175E0
1.051186345E0;-3.128615618E-1;4.703691006E0;8.706285477E0;9.900605953E0
1.053358516E0;-3.128615618E-1;4.708476543E0;8.706285477E0;9.902880415E0
1.055529739E0;-2.985046208E-1;4.684548378E0;8.696713448E0;9.882657704E0
1.057698685E0;-3.080759048E-1;4.694119930E0;8.711071014E0;9.900122772E0
1.059866430E0;-3.176472187E-1;4.684548378E0;8.687142372E0;9.874833460E0
1.062038020E0;-3.224328458E-1;4.674977303E0;8.682356834E0;9.866240212E0
1.064208889E0;-3.128615618E-1;4.674977303E0;8.663214684E0;9.849090506E0
1.066378688E0;-3.224328458E-1;4.679762840E0;8.658429146E0;9.847463554E0
1.068540818E0;-3.176472187E-1;4.679762840E0;8.668000221E0;9.855724622E0
1.070722366E0;-3.272185028E-1;4.679762840E0;8.668000221E0;9.856037745E0
1.072884455E0;-3.176472187E-1;4.670191765E0;8.677571297E0;9.859606203E0
1.075069210E0;-3.176472187E-1;4.665405750E0;8.677571297E0;9.857340117E0
1.077231635E0;-2.985046208E-1;4.651049137E0;8.672785759E0;9.845738972E0
1.079393581E0;-3.080759048E-1;4.651049137E0;8.663214684E0;9.837604256E0
1.081577988E0;-3.176472187E-1;4.655834675E0;8.663214684E0;9.840171997E0
1.083748734E0;-3.320041299E-1;4.646263599E0;8.672785759E0;9.844552047E0
1.085923906E0;-3.367897868E-1;4.641477585E0;8.648857117E0;9.821378262E0
1.088089037E0;-3.224328458E-1;4.646263599E0;8.658429146E0;9.831588053E0
1.090252030E0;-3.224328458E-1;4.655834675E0;8.653642654E0;9.831901680E0
1.092434057E0;-3.463610709E-1;4.651049137E0;8.648857117E0;9.826238013E0
1.094603003E0;-3.463610709E-1;4.651049137E0;8.653642654E0;9.830450410E0
1.096776679E0;-3.511467278E-1;4.627120972E0;8.625527382E0;9.794553340E0
1.098945136E0;-3.607180119E-1;4.627120972E0;8.635098457E0;9.803330625E0
1.101116187E0;-3.457628787E-1;4.617549419E0;8.644669533E0;9.806713310E0
1.103287532E0;-3.553341627E-1;4.612763882E0;8.630312920E0;9.792147573E0
1.105458778E0;-3.511467278E-1;4.622334957E0;8.644669533E0;9.809158772E0
1.107629055E0;-3.457628787E-1;4.617549419E0;8.644669533E0;9.806713310E0
1.109796240E0;-3.601198196E-1;4.622334957E0;8.644669533E0;9.809484088E0
1.111951982E0;-3.601198196E-1;4.627120972E0;8.659027100E0;9.824392352E0
1.114141771E0;-3.559323549E-1;4.636692047E0;8.649456024E0;9.820320285E0
1.116315152E0;-3.649054468E-1;4.627120972E0;8.639883995E0;9.807701052E0
1.118502987E0;-3.696911037E-1;4.631906509E0;8.635098457E0;9.805924474E0
1.120667720E0;-3.840480447E-1;4.617549419E0;8.639883995E0;9.803920185E0
1.122837266E0;-3.888336718E-1;4.636692047E0;8.630312920E0;9.804713451E0
1.124994372E0;-3.888336718E-1;4.636692047E0;8.615956306E0;9.792078831E0
1.127169186E0;-3.942175210E-1;4.660620213E0;8.605786324E0;9.794710127E0
1.129333473E0;-4.031906128E-1;4.651049137E0;8.620143890E0;9.803147527E0
1.131510616E0;-4.175475538E-1;4.636692047E0;8.630312920E0;9.805894156E0
1.133693214E0;-3.984049559E-1;4.622334957E0;8.639883995E0;9.806747800E0
1.135865354E0;-4.175475538E-1;4.627120972E0;8.620741844E0;9.792945644E0
1.138036964E0;-4.127618968E-1;4.631906509E0;8.625527382E0;9.799216954E0
1.140205085E0;-4.127618968E-1;4.627120972E0;8.625527382E0;9.796955827E0
1.142375577E0;-4.079762697E-1;4.636692047E0;8.620741844E0;9.797068323E0
1.144544532E0;-4.127618968E-1;4.646263599E0;8.624929428E0;9.805485478E0
1.146696683E0;-4.175475538E-1;4.655834675E0;8.629714966E0;9.814434414E0
1.148858996E0;-4.085744619E-1;4.660620213E0;8.624929428E0;9.812121152E0
1.151054888E0;-4.031906128E-1;4.641477585E0;8.644071579E0;9.819666507E0
1.153219866E0;-4.037888348E-1;4.655834675E0;8.615358353E0;9.801236733E0
1.155404102E0;-4.031906128E-1;4.631906509E0;8.630312920E0;9.803031249E0
1.157557565E0;-4.079762697E-1;4.622334957E0;8.615956306E0;9.786068065E0
1.159746844E0;-4.175475538E-1;4.641477585E0;8.648857117E0;9.824479098E0
1.161914243E0;-4.127618968E-1;4.631906509E0;8.639883995E0;9.811856386E0
1.164087909E0;-4.031906128E-1;4.627120972E0;8.644669533E0;9.813415434E0
1.166253192E0;-4.031906128E-1;4.627120972E0;8.620741844E0;9.792344004E0
1.168420174E0;-4.175475538E-1;4.631906509E0;8.615956306E0;9.790996218E0
1.170597735E0;-4.271188378E-1;4.617549419E0;8.649456024E0;9.814136878E0
1.172768196E0;-4.223332107E-1;4.612763882E0;8.615956306E0;9.782160244E0
1.174940936E0;-4.223332107E-1;4.627120972E0;8.625527382E0;9.797363750E0
1.177106464E0;-4.271188378E-1;4.607978344E0;8.601598740E0;9.767466191E0
1.179268114E0;-4.414757788E-1;4.607978344E0;8.592027664E0;9.759677488E0
1.181449277E0;-4.175475538E-1;4.612763882E0;8.601598740E0;9.769311003E0
1.183620054E0;-4.414757788E-1;4.603192329E0;8.592027664E0;9.757418709E0
1.185794076E0;-4.366901219E-1;4.598406792E0;8.606385231E0;9.767594895E0
1.187961017E0;-4.319044948E-1;4.598406792E0;8.615956306E0;9.775816569E0
1.190129382E0;-4.366901219E-1;4.588835716E0;8.620741844E0;9.775750684E0
1.192309609E0;-4.319044948E-1;4.584050179E0;8.644669533E0;9.794404977E0
1.194477365E0;-4.462614357E-1;4.584050179E0;8.630312920E0;9.782380406E0
1.196647186E0;-4.414757788E-1;4.579264164E0;8.625527382E0;9.775698633E0
1.198804199E0;-4.606183469E-1;4.569693089E0;8.625527382E0;9.772102476E0
1.200986459E0;-4.558327198E-1;4.574478626E0;8.620741844E0;9.769893966E0
1.203161071E0;-4.558327198E-1;4.574478626E0;8.625527382E0;9.774116880E0
1.205335326E0;-4.558327198E-1;4.564907551E0;8.625527382E0;9.769641090E0
1.207503376E0;-4.510470629E-1;4.579264164E0;8.639883995E0;9.788804788E0
1.209678902E0;-4.366901219E-1;4.564907551E0;8.649456024E0;9.789901364E0
1.211866220E0;-4.462614357E-1;4.584050179E0;8.644669533E0;9.795048578E0
1.214029234E0;-4.366901219E-1;4.584050179E0;8.654241562E0;9.803066424E0
1.216185800E0;-4.510470629E-1;4.603192329E0;8.639883995E0;9.800021353E0
1.218352956E0;-4.510470629E-1;4.588835716E0;8.625527382E0;9.780622644E0
1.220524169E0;-4.175475538E-1;4.612763882E0;8.635098457E0;9.798819416E0
1.222695789E0;-4.223332107E-1;4.607978344E0;8.649456024E0;9.809430120E0
1.224858489E0;-4.175475538E-1;4.612763882E0;8.659027100E0;9.819912775E0
1.227042623E0;-4.223332107E-1;4.607978344E0;8.659027100E0;9.817870445E0
1.229211945E0;-4.127618968E-1;4.607978344E0;8.649456024E0;9.809022699E0
1.231386097E0;-3.936193287E-1;4.607978344E0;8.649456024E0;9.808235831E0
1.233549997E0;-4.079762697E-1;4.603192329E0;8.649456024E0;9.806575028E0
1.235714019E0;-3.888336718E-1;4.617549419E0;8.668598175E0;9.829422597E0
1.237895762E0;-4.127618968E-1;4.612763882E0;8.654241562E0;9.815490819E0
1.240065907E0;-4.127618968E-1;4.607978344E0;8.659027100E0;9.817463375E0
1.242239633E0;-4.079762697E-1;4.612763882E0;8.654241562E0;9.815290738E0
1.244404307E0;-3.984049559E-1;4.598406792E0;8.659027100E0;9.812381049E0
1.246560771E0;-4.031906128E-1;4.603192329E0;8.654241562E0;9.810598315E0
1.248748617E0;-4.031906128E-1;4.607978344E0;8.649456024E0;9.808624603E0
1.250915212E0;-4.079762697E-1;4.631906509E0;8.639883995E0;9.811656231E0
1.253082835E0;-4.079762697E-1;4.651049137E0;8.624929428E0;9.807553739E0
1.255254334E0;-3.936193287E-1;4.636692047E0;8.620741844E0;9.796480963E0
1.257407471E0;-3.840480447E-1;4.631906509E0;8.615956306E0;9.789624808E0
1.259609344E0;-3.798605800E-1;4.646263599E0;8.620143890E0;9.799945928E0
1.261777618E0;-3.798605800E-1;4.651049137E0;8.601000786E0;9.785385361E0
1.263953176E0;-3.655036688E-1;4.636692047E0;8.606385231E0;9.782758957E0
1.266115988E0;-3.649054468E-1;4.627120972E0;8.625527382E0;9.795056257E0
1.268281963E0;-3.559323549E-1;4.641477585E0;8.630312920E0;9.805728076E0
1.270459626E0;-3.511467278E-1;4.631906509E0;8.654241562E0;9.822105627E0
1.272630239E0;-3.607180119E-1;4.636692047E0;8.668000221E0;9.836831729E0
1.274801778E0;-3.607180119E-1;4.641477585E0;8.696713448E0;9.864393364E0
1.276973338E0;-3.649054468E-1;4.641477585E0;8.687142372E0;9.856110427E0
1.279151297E0;-3.888336718E-1;4.641477585E0;8.668000221E0;9.840159228E0
1.281314280E0;-3.984049559E-1;4.651049137E0;8.629714966E0;9.811369169E0
1.283484945E0;-4.079762697E-1;4.641477585E0;8.644071579E0;9.819864168E0
1.285652721E0;-4.223332107E-1;4.631906509E0;8.648857117E0;9.820165614E0
1.287822287E0;-4.175475538E-1;4.617549419E0;8.678169250E0;9.839041119E0
1.289980470E0;-4.127618968E-1;4.627120972E0;8.691927910E0;9.855467095E0
1.292155610E0;-4.175475538E-1;4.622334957E0;8.682356834E0;9.844980783E0
1.294338899E0;-4.127618968E-1;4.627120972E0;8.659027100E0;9.826462801E0
1.296518455E0;-4.079762697E-1;4.612763882E0;8.659027100E0;9.819510455E0
1.298705873E0;-4.175475538E-1;4.617549419E0;8.649456024E0;9.813724987E0
1.300868043E0;-3.984049559E-1;4.627120972E0;8.644669533E0;9.813219977E0
1.303023174E0;-3.840480447E-1;4.622334957E0;8.659027100E0;9.823045539E0
1.305188509E0;-3.984049559E-1;4.622334957E0;8.654241562E0;9.819399369E0
1.307360048E0;-3.744767308E-1;4.607978344E0;8.649456024E0;9.807486261E0
1.309531902E0;-3.744767308E-1;4.622334957E0;8.663812637E0;9.826894865E0
1.311690105E0;-3.696911037E-1;4.631906509E0;8.639883995E0;9.810138881E0
1.313864809E0;-3.511467278E-1;4.627120972E0;8.625527382E0;9.794553340E0
1.316046480E0;-3.607180119E-1;4.631906509E0;8.639883995E0;9.809804832E0
1.318222068E0;-3.702892959E-1;4.651049137E0;8.639286041E0;9.818688076E0
1.320392386E0;-3.655036688E-1;4.655834675E0;8.644071579E0;9.824986662E0
1.322553499E0;-3.846462369E-1;4.665405750E0;8.653642654E0;9.838673423E0
1.324703198E0;-3.655036688E-1;4.651049137E0;8.653642654E0;9.831143484E0
1.326902589E0;-3.559323549E-1;4.660620213E0;8.644071579E0;9.826903992E0
1.329073987E0;-3.894318938E-1;4.665405750E0;8.639286041E0;9.826236885E0
1.331253481E0;-3.942175210E-1;4.655834675E0;8.624929428E0;9.809261522E0
1.333422263E0;-3.846462369E-1;4.665405750E0;8.605786324E0;9.796607667E0
1.335612897E0;-3.942175210E-1;4.660620213E0;8.577073097E0;9.769491857E0
1.337756859E0;-3.750749528E-1;4.651049137E0;8.582456589E0;9.768904769E0
1.339925834E0;-3.702892959E-1;4.651049137E0;8.587242126E0;9.772926869E0
1.342088645E0;-3.942175210E-1;4.655834675E0;8.581858635E0;9.771412467E0
1.344251070E0;-3.894318938E-1;4.646263599E0;8.582456589E0;9.767189142E0
1.346416761E0;-3.846462369E-1;4.641477585E0;8.572885513E0;9.756312465E0
1.348599724E0;-3.894318938E-1;4.631906509E0;8.568099976E0;9.747746011E0
1.350786552E0;-3.798605800E-1;4.646263599E0;8.558527946E0;9.745791918E0
1.352959536E0;-3.942175210E-1;4.651049137E0;8.577671051E0;9.765454735E0
1.355130689E0;-4.127618968E-1;4.641477585E0;8.553742409E0;9.740646578E0
1.357308830E0;-3.894318938E-1;4.641477585E0;8.548956871E0;9.735483293E0
1.359466128E0;-3.984049559E-1;4.627120972E0;8.534600258E0;9.716397303E0
1.361636874E0;-4.079762697E-1;4.636692047E0;8.539385796E0;9.725557441E0
1.363805352E0;-4.175475538E-1;4.622334957E0;8.548956871E0;9.727537715E0
1.365973076E0;-4.271188378E-1;4.627120972E0;8.534600258E0;9.717617020E0
1.368124301E0;-4.462614357E-1;4.636692047E0;8.529814720E0;9.718837460E0
1.370322146E0;-4.414757788E-1;4.631906509E0;8.515457153E0;9.703734812E0
1.372491448E0;-4.414757788E-1;4.646263599E0;8.510671616E0;9.706399829E0
1.374669590E0;-4.510470629E-1;4.655834675E0;8.510671616E0;9.711424783E0
1.376830814E0;-4.462614357E-1;4.655834675E0;8.515457153E0;9.715397898E0
1.378996271E0;-4.277170599E-1;4.660620213E0;8.543573380E0;9.741507519E0
1.381174065E0;-4.325026870E-1;4.665405750E0;8.557929993E0;9.756599569E0
1.383344964E0;-4.229314029E-1;4.660620213E0;8.557929993E0;9.753892428E0
1.385517022E0;-4.085744619E-1;4.646263599E0;8.572885513E0;9.759562723E0
1.387684116E0;-4.127618968E-1;4.641477585E0;8.572885513E0;9.757461380E0
1.389845991E0;-4.175475538E-1;4.646263599E0;8.615358353E0;9.797270586E0
1.392030439E0;-4.319044948E-1;4.651049137E0;8.639286041E0;9.821204757E0
1.394200504E0;-4.175475538E-1;4.612763882E0;8.678169250E0;9.836796131E0
1.396368798E0;-4.127618968E-1;4.631906509E0;8.706285477E0;9.870376745E0
1.398517083E0;-4.223332107E-1;4.627120972E0;8.701499939E0;9.864315233E0
1.400699181E0;-4.127618968E-1;4.612763882E0;8.706883430E0;9.861936021E0
1.402872034E0;-4.127618968E-1;4.622334957E0;8.715856552E0;9.874335840E0
1.405062748E0;-4.175475538E-1;4.622334957E0;8.725427628E0;9.882986072E0
1.407228733E0;-4.319044948E-1;4.622334957E0;8.720642090E0;9.879378544E0
1.409398105E0;-4.175475538E-1;4.622334957E0;8.691927910E0;9.853422614E0
1.411555098E0;-3.984049559E-1;4.627120972E0;8.687142372E0;9.850655693E0
1.413725794E0;-3.840480447E-1;4.636692047E0;8.696713448E0;9.863023412E0
1.415910231E0;-3.984049559E-1;4.622334957E0;8.678169250E0;9.840494322E0
1.418084701E0;-3.888336718E-1;4.636692047E0;8.672785759E0;9.842119568E0
1.420254917E0;-3.840480447E-1;4.622334957E0;8.668598175E0;9.831483493E0
1.422419641E0;-3.744767308E-1;4.603192329E0;8.678169250E0;9.830576483E0
1.424578607E0;-3.744767308E-1;4.622334957E0;8.682954788E0;9.843775553E0
1.426761102E0;-3.696911037E-1;4.641477585E0;8.672785759E0;9.843637463E0
1.428921880E0;-3.607180119E-1;4.636692047E0;8.668598175E0;9.837358637E0
1.431109481E0;-3.655036688E-1;4.651049137E0;8.644071579E0;9.822719810E0
1.433281661E0;-3.559323549E-1;4.646263599E0;8.630312920E0;9.807994411E0
1.435471420E0;-3.415754437E-1;4.665405750E0;8.624929428E0;9.811834295E0
1.437619969E0;-3.367897868E-1;4.660620213E0;8.634500504E0;9.817810707E0
1.439790134E0;-3.224328458E-1;4.660620213E0;8.596813202E0;9.784198533E0
1.441954228E0;-3.272185028E-1;4.660620213E0;8.577671051E0;9.767542852E0
1.444131963E0;-3.272185028E-1;4.674977303E0;8.572287560E0;9.769677514E0
1.446295191E0;-3.176472187E-1;4.679762840E0;8.572287560E0;9.771652573E0
1.448473038E0;-2.985046208E-1;4.660620213E0;8.553742409E0;9.745614140E0
1.450644454E0;-3.080759048E-1;4.674977303E0;8.534600258E0;9.736001495E0
1.452817723E0;-2.985046208E-1;4.684548378E0;8.534002304E0;9.739778942E0
1.454986160E0;-3.032902777E-1;4.684548378E0;8.538787842E0;9.744120089E0
1.457155818E0;-3.176472187E-1;4.665405750E0;8.520243645E0;9.719128682E0
1.459328486E0;-3.080759048E-1;4.660620213E0;8.525029182E0;9.720720863E0
1.461498520E0;-3.224328458E-1;4.698905468E0;8.534002304E0;9.747454584E0
1.463670111E0;-3.176472187E-1;4.689334393E0;8.519644737E0;9.730113219E0
1.465840093E0;-3.272185028E-1;4.689334393E0;8.500502586E0;9.713674547E0
1.468012172E0;-3.224328458E-1;4.689334393E0;8.534002304E0;9.742844313E0
1.470185470E0;-3.320041299E-1;4.694119930E0;8.538787842E0;9.749660839E0
1.472353684E0;-3.272185028E-1;4.694119930E0;8.538787842E0;9.749499047E0
1.474525040E0;-3.463610709E-1;4.694119930E0;8.553144455E0;9.762735681E0
1.476695308E0;-3.511467278E-1;4.674977303E0;8.534002304E0;9.736935459E0
1.478870876E0;-3.655036688E-1;4.679762840E0;8.519644737E0;9.727184568E0
1.481037756E0;-3.559323549E-1;4.689334393E0;8.529216766E0;9.739819482E0
1.483207617E0;-3.702892959E-1;4.689334393E0;8.529216766E0;9.740354709E0
1.485377783E0;-3.655036688E-1;4.689334393E0;8.543573380E0;9.752748129E0
1.487547116E0;-3.702892959E-1;4.694119930E0;8.529216766E0;9.742659531E0
1.489708146E0;-3.798605800E-1;4.679762840E0;8.514859200E0;9.723543669E0
1.491893621E0;-3.702892959E-1;4.684548378E0;8.519644737E0;9.729668757E0
1.494062027E0;-3.846462369E-1;4.674977303E0;8.524430275E0;9.729813822E0
1.496233150E0;-3.846462369E-1;4.665405750E0;8.519644737E0;9.721024123E0
1.498387682E0;-3.942175210E-1;4.660620213E0;8.534002304E0;9.731699931E0
1.500561641E0;-4.133601189E-1;4.679762840E0;8.519644737E0;9.729100332E0
1.502742681E0;-4.037888348E-1;4.651049137E0;8.510671616E0;9.707050780E0
1.504919236E0;-4.133601189E-1;4.660620213E0;8.510671616E0;9.712042973E0
1.507089566E0;-3.942175210E-1;4.655834675E0;8.486743927E0;9.687983611E0
1.509261094E0;-3.798605800E-1;4.674977303E0;8.519644737E0;9.725433321E0
1.511429144E0;-3.798605800E-1;4.665405750E0;8.515457153E0;9.717166017E0
1.513593868E0;-3.607180119E-1;4.670191765E0;8.557929993E0;9.755971216E0
1.515746629E0;-3.511467278E-1;4.679762840E0;8.586644173E0;9.785394341E0
1.517928280E0;-3.607180119E-1;4.679762840E0;8.581858635E0;9.781543608E0
1.520099239E0;-3.463610709E-1;4.665405750E0;8.572287560E0;9.765761148E0
1.522275946E0;-3.415754437E-1;4.674977303E0;8.567501068E0;9.765969543E0
1.524443957E0;-3.272185028E-1;4.665405750E0;8.581858635E0;9.773503998E0
1.526614722E0;-3.463610709E-1;4.660620213E0;8.553742409E0;9.747197338E0
1.528780616E0;-3.559323549E-1;4.670191765E0;8.557929993E0;9.755795443E0
1.530955899E0;-3.415754437E-1;4.670191765E0;8.572287560E0;9.767879960E0
1.533126614E0;-3.463610709E-1;4.684548378E0;8.567501068E0;9.770723312E0
1.535299182E0;-3.559323549E-1;4.679762840E0;8.567501068E0;9.768773855E0
1.537469256E0;-3.415754437E-1;4.689334393E0;8.572287560E0;9.777046836E0
1.539641699E0;-3.415754437E-1;4.689334393E0;8.591429710E0;9.793834555E0
1.541808204E0;-3.224328458E-1;4.713262558E0;8.577073097E0;9.792088122E0
1.543970893E0;-3.320041299E-1;4.703691006E0;8.620143890E0;9.825569526E0
1.546145739E0;-3.224328458E-1;4.703691006E0;8.634500504E0;9.837848899E0
1.548323718E0;-3.320041299E-1;4.698905468E0;8.639286041E0;9.840081435E0
1.550497088E0;-3.224328458E-1;4.679762840E0;8.668000221E0;9.855880022E0
1.552666756E0;-3.320041299E-1;4.694119930E0;8.668000221E0;9.863022686E0
1.554834541E0;-3.176472187E-1;4.694119930E0;8.672785759E0;9.866756027E0
1.557000241E0;-3.128615618E-1;4.679762840E0;8.668000221E0;9.855571543E0
1.559178291E0;-3.367897868E-1;4.698905468E0;8.682356834E0;9.878079781E0
1.561350003E0;-3.367897868E-1;4.694119930E0;8.682356834E0;9.875804245E0
1.563521838E0;-3.320041299E-1;4.684548378E0;8.672785759E0;9.862678798E0
1.565688525E0;-3.463610709E-1;4.689334393E0;8.663214684E0;9.857033615E0
1.567853158E0;-3.272185028E-1;4.679762840E0;8.644071579E0;9.835000033E0
1.570030830E0;-3.367897868E-1;4.694119930E0;8.648857117E0;9.846365761E0
1.572202369E0;-3.463610709E-1;4.674977303E0;8.658429146E0;9.846002948E0
1.574376025E0;-3.702892959E-1;4.684548378E0;8.648857117E0;9.843009555E0
1.576542387E0;-3.559323549E-1;4.670191765E0;8.668000221E0;9.852492415E0
1.578704192E0;-3.655036688E-1;4.689334393E0;8.682356834E0;9.874551644E0
1.580887103E0;-3.750749528E-1;4.694119930E0;8.639286041E0;9.839344818E0
1.583057849E0;-3.702892959E-1;4.694119930E0;8.639286041E0;9.839163551E0
1.585231779E0;-3.750749528E-1;4.689334393E0;8.644071579E0;9.841265758E0
1.587397572E0;-3.750749528E-1;4.679762840E0;8.639286041E0;9.832503484E0
1.589562660E0;-3.798605800E-1;4.689334393E0;8.605786324E0;9.807839179E0
1.591743172E0;-3.942175210E-1;4.674977303E0;8.572287560E0;9.772150952E0
1.593912738E0;-3.990031779E-1;4.694119930E0;8.577073097E0;9.785711439E0
1.596086506E0;-3.990031779E-1;4.684548378E0;8.577073097E0;9.781123655E0
1.598253824E0;-3.894318938E-1;4.694119930E0;8.577073097E0;9.785325852E0
1.600425271E0;-3.894318938E-1;4.679762840E0;8.562715530E0;9.765855554E0
1.602596099E0;-3.942175210E-1;4.694119930E0;8.577073097E0;9.785517477E0
1.604766905E0;-3.894318938E-1;4.694119930E0;8.591429710E0;9.797912206E0
1.606938374E0;-4.037888348E-1;4.694119930E0;8.596215248E0;9.802689628E0
1.609110972E0;-3.942175210E-1;4.679762840E0;8.601000786E0;9.799632759E0
1.611279946E0;-4.037888348E-1;4.689334393E0;8.624929428E0;9.825594644E0
1.613451892E0;-3.798605800E-1;4.674977303E0;8.610571861E0;9.805185088E0
1.615623798E0;-3.798605800E-1;4.689334393E0;8.634500504E0;9.833043784E0
1.617806629E0;-3.655036688E-1;4.689334393E0;8.620143890E0;9.819894636E0
1.619975920E0;-3.750749528E-1;4.684548378E0;8.610571861E0;9.809567906E0
1.622154153E0;-3.750749528E-1;4.689334393E0;8.601000786E0;9.803456165E0
1.624338714E0;-3.798605800E-1;4.674977303E0;8.596215248E0;9.792580019E0
1.626491383E0;-3.798605800E-1;4.679762840E0;8.591429710E0;9.790665900E0
1.628663899E0;-3.846462369E-1;4.674977303E0;8.586644173E0;9.784366288E0
1.630823109E0;-3.750749528E-1;4.660620213E0;8.591429710E0;9.781345841E0
1.632998596E0;-3.894318938E-1;4.660620213E0;8.591429710E0;9.781906892E0
1.635170858E0;-3.894318938E-1;4.651049137E0;8.591429710E0;9.777350344E0
1.637341126E0;-3.798605800E-1;4.655834675E0;8.591429710E0;9.779251252E0
1.639513834E0;-3.894318938E-1;4.670191765E0;8.562715530E0;9.761272744E0
1.641683878E0;-3.942175210E-1;4.665405750E0;8.577073097E0;9.771775744E0
1.643851776E0;-3.942175210E-1;4.660620213E0;8.553144455E0;9.748490565E0
1.646007649E0;-3.942175210E-1;4.679762840E0;8.543573380E0;9.749268372E0
1.648198405E0;-3.990031779E-1;4.670191765E0;8.524430275E0;9.728093655E0
1.650367807E0;-3.942175210E-1;4.670191765E0;8.514859200E0;9.719512630E0
1.652543305E0;-3.846462369E-1;4.670191765E0;8.514859200E0;9.719129129E0
1.654702220E0;-4.037888348E-1;4.689334393E0;8.505288124E0;9.720742181E0
1.656852508E0;-3.942175210E-1;4.694119930E0;8.471788406E0;9.693367226E0
1.659052887E0;-3.990031779E-1;4.674977303E0;8.486145973E0;9.696870103E0
1.661223520E0;-3.894318938E-1;4.694119930E0;8.510073662E0;9.726652705E0
1.663400940E0;-3.942175210E-1;4.684548378E0;8.500502586E0;9.713853261E0
1.665560099E0;-3.942175210E-1;4.694119930E0;8.481359482E0;9.701733249E0
1.667715994E0;-4.037888348E-1;4.708476543E0;8.500502586E0;9.725807987E0
1.669904612E0;-4.037888348E-1;4.674977303E0;8.490931511E0;9.701256420E0
1.672076752E0;-4.181457460E-1;4.679762840E0;8.481359482E0;9.695797273E0
1.674252351E0;-4.133601189E-1;4.684548378E0;8.476573944E0;9.693717859E0
1.676419394E0;-4.277170599E-1;4.674977303E0;8.462815285E0;9.677685529E0
1.678588258E0;-4.372883439E-1;4.689334393E0;8.438288689E0;9.663632554E0
1.680748077E0;-4.372883439E-1;4.689334393E0;8.462217331E0;9.684534077E0
1.682932486E0;-4.325026870E-1;4.694119930E0;8.462217331E0;9.686637324E0
1.685101583E0;-4.229314029E-1;4.694119930E0;8.452646255E0;9.677854184E0
1.687273072E0;-4.325026870E-1;4.694119930E0;8.447860718E0;9.674097953E0
1.689431519E0;-4.181457460E-1;4.698905468E0;8.452646255E0;9.679968346E0
1.691617056E0;-4.229314029E-1;4.703691006E0;8.438288689E0;9.669968772E0
1.693786175E0;-4.037888348E-1;4.703691006E0;8.443074226E0;9.673327085E0
1.695961213E0;-4.181457460E-1;4.694119930E0;8.438288689E0;9.665108576E0
1.698124615E0;-4.229314029E-1;4.684548378E0;8.434102058E0;9.657015171E0
1.700283611E0;-4.277170599E-1;4.698905468E0;8.443074226E0;9.672029615E0
1.702457114E0;-4.133601189E-1;4.718048096E0;8.443074226E0;9.680720366E0
1.704639405E0;-4.372883439E-1;4.694119930E0;8.447860718E0;9.674313088E0
1.706809327E0;-4.229314029E-1;4.684548378E0;8.453244209E0;9.673737754E0
1.708972495E0;-4.372883439E-1;4.689334393E0;8.476573944E0;9.697081209E0
1.711153667E0;-4.420739710E-1;4.679762840E0;8.495717049E0;9.709419025E0
1.713326163E0;-4.325026870E-1;4.679762840E0;8.519644737E0;9.729932439E0
1.715499910E0;-4.462614357E-1;4.655834675E0;8.534600258E0;9.732181017E0
1.717667767E0;-4.420739710E-1;4.689334393E0;8.562715530E0;9.772685593E0
1.719839194E0;-4.558327198E-1;4.670191765E0;8.562715530E0;9.764147267E0
1.722007509E0;-4.229314029E-1;4.655834675E0;8.558527946E0;9.752131465E0
1.724183534E0;-4.229314029E-1;4.670191765E0;8.586644173E0;9.783660881E0
1.726362429E0;-4.181457460E-1;4.670191765E0;8.596215248E0;9.791856493E0
1.728497520E0;-4.079762697E-1;4.646263599E0;8.601598740E0;9.784769336E0
1.730679781E0;-4.037888348E-1;4.660620213E0;8.605786324E0;9.795100022E0
1.732852907E0;-3.984049559E-1;4.636692047E0;8.630312920E0;9.805097691E0
1.735018150E0;-4.079762697E-1;4.641477585E0;8.648857117E0;9.824076966E0
1.737207288E0;-4.031906128E-1;4.641477585E0;8.630312920E0;9.807557185E0
1.739374828E0;-3.840480447E-1;4.622334957E0;8.635098457E0;9.801958923E0
1.741550702E0;-3.894318938E-1;4.651049137E0;8.624929428E0;9.806799831E0
1.743712425E0;-3.936193287E-1;4.651049137E0;8.644071579E0;9.823806172E0
1.745872052E0;-3.888336718E-1;4.646263599E0;8.658429146E0;9.833989645E0
1.748061383E0;-3.798605800E-1;4.660620213E0;8.682356834E0;9.861490507E0
1.750230592E0;-3.840480447E-1;4.646263599E0;8.682356834E0;9.854875876E0
1.752405713E0;-3.750749528E-1;4.651049137E0;8.691927910E0;9.865219211E0
1.754569542E0;-3.696911037E-1;4.641477585E0;8.672785759E0;9.843637463E0
1.756733880E0;-3.792623878E-1;4.651049137E0;8.682356834E0;9.856947714E0
1.758913730E0;-3.888336718E-1;4.651049137E0;8.653642654E0;9.832038491E0
1.761081627E0;-3.936193287E-1;4.651049137E0;8.644071579E0;9.823806172E0
1.763255333E0;-4.079762697E-1;4.655834675E0;8.634500504E0;9.818240173E0
1.765424543E0;-3.990031779E-1;4.670191765E0;8.620143890E0;9.812072938E0
1.767596133E0;-4.085744619E-1;4.660620213E0;8.591429710E0;9.782687684E0
1.769770072E0;-3.894318938E-1;4.655834675E0;8.586644173E0;9.775423871E0
1.771939638E0;-3.942175210E-1;4.660620213E0;8.591429710E0;9.782098583E0
1.774109693E0;-3.942175210E-1;4.651049137E0;8.582456589E0;9.769658470E0
1.776283644E0;-3.990031779E-1;4.679762840E0;8.581858635E0;9.783030277E0
1.778462813E0;-3.846462369E-1;4.674977303E0;8.581858635E0;9.780166826E0
1.780609683E0;-3.942175210E-1;4.684548378E0;8.557929993E0;9.764147004E0
1.782794212E0;-3.798605800E-1;4.679762840E0;8.548358917E0;9.752892621E0
1.784960462E0;-3.798605800E-1;4.694119930E0;8.557929993E0;9.768173920E0
1.787138675E0;-3.750749528E-1;4.684548378E0;8.567501068E0;9.771783321E0
1.789300509E0;-3.702892959E-1;4.689334393E0;8.572287560E0;9.778092105E0
1.791464898E0;-3.846462369E-1;4.689334393E0;8.577073097E0;9.782841749E0
1.793647861E0;-3.702892959E-1;4.694119930E0;8.562715530E0;9.771999454E0
1.795819207E0;-3.702892959E-1;4.689334393E0;8.548358917E0;9.757121060E0
1.797996342E0;-3.607180119E-1;4.703691006E0;8.548358917E0;9.763670762E0
1.800170475E0;-3.702892959E-1;4.694119930E0;8.548358917E0;9.759421922E0
1.802324751E0;-3.655036688E-1;4.684548378E0;8.538787842E0;9.746254883E0
1.804503890E0;-3.607180119E-1;4.679762840E0;8.572287560E0;9.773147483E0
1.806673578E0;-3.607180119E-1;4.689334393E0;8.567501068E0;9.773538207E0
1.808859563E0;-3.655036688E-1;4.679762840E0;8.577073097E0;9.777523004E0
1.811013176E0;-3.607180119E-1;4.689334393E0;8.557929993E0;9.765149271E0
1.813180759E0;-3.702892959E-1;4.670191765E0;8.557929993E0;9.756329794E0
1.815355483E0;-3.607180119E-1;4.679762840E0;8.572287560E0;9.773147483E0
1.817530725E0;-3.702892959E-1;4.674977303E0;8.581858635E0;9.779612701E0
1.819699751E0;-3.655036688E-1;4.660620213E0;8.615358353E0;9.802008633E0
1.821861942E0;-3.559323549E-1;4.679762840E0;8.624929428E0;9.819178974E0
1.824012730E0;-3.559323549E-1;4.679762840E0;8.639286041E0;9.831791871E0
1.826210260E0;-3.607180119E-1;4.655834675E0;8.653642654E0;9.833231676E0
1.828380955E0;-3.511467278E-1;4.660620213E0;8.668000221E0;9.847787194E0
1.830560653E0;-3.559323549E-1;4.655834675E0;8.653642654E0;9.833057284E0
1.832723139E0;-3.559323549E-1;4.631906509E0;8.659027100E0;9.826494597E0
1.834891566E0;-3.559323549E-1;4.636692047E0;8.649456024E0;9.820320285E0
1.837066441E0;-3.607180119E-1;4.636692047E0;8.644669533E0;9.816279435E0
1.839237786E0;-3.511467278E-1;4.641477585E0;8.644669533E0;9.818193802E0
1.841408583E0;-3.607180119E-1;4.636692047E0;8.630312920E0;9.803638698E0
1.843579584E0;-3.655036688E-1;4.641477585E0;8.644669533E0;9.818717759E0
1.845753850E0;-3.511467278E-1;4.631906509E0;8.635098457E0;9.805242848E0
1.847921860E0;-3.607180119E-1;4.631906509E0;8.639883995E0;9.809804832E0
1.850092086E0;-3.649054468E-1;4.627120972E0;8.659027100E0;9.824568936E0
1.852262487E0;-3.744767308E-1;4.622334957E0;8.639883995E0;9.805804848E0
1.854438380E0;-3.744767308E-1;4.627120972E0;8.635098457E0;9.803846525E0
1.856622432E0;-3.840480447E-1;4.641477585E0;8.648857117E0;9.823112363E0
1.858776088E0;-3.846462369E-1;4.646263599E0;8.644071579E0;9.821185856E0
1.860945958E0;-3.750749528E-1;4.651049137E0;8.629714966E0;9.810449515E0
1.863112421E0;-3.990031779E-1;4.651049137E0;8.620143890E0;9.802976196E0
1.865284317E0;-3.990031779E-1;4.655834675E0;8.644071579E0;9.826289916E0
1.867447088E0;-3.990031779E-1;4.651049137E0;8.624929428E0;9.807184573E0
1.869631525E0;-3.894318938E-1;4.660620213E0;8.644071579E0;9.828174369E0
1.871800796E0;-3.984049559E-1;4.651049137E0;8.648857117E0;9.828210112E0
1.873975296E0;-3.990031779E-1;4.660620213E0;8.634500504E0;9.820141712E0
1.876141251E0;-3.990031779E-1;4.665405750E0;8.648857117E0;9.835036542E0
1.878311560E0;-4.037888348E-1;4.660620213E0;8.648857117E0;9.832962708E0
1.880484269E0;-3.984049559E-1;4.660620213E0;8.672785759E0;9.853797242E0
1.882655686E0;-3.846462369E-1;4.670191765E0;8.653642654E0;9.840943808E0
1.884826625E0;-4.037888348E-1;4.684548378E0;8.648857117E0;9.844326709E0
1.887000107E0;-3.894318938E-1;4.665405750E0;8.677571297E0;9.859914382E0
1.889169613E0;-3.894318938E-1;4.670191765E0;8.668000221E0;9.853759494E0
1.891327134E0;-3.990031779E-1;4.674977303E0;8.663214684E0;9.852203052E0
1.893507971E0;-3.750749528E-1;4.674977303E0;8.658429146E0;9.847054853E0
1.895676998E0;-3.750749528E-1;4.670191765E0;8.672785759E0;9.857412701E0
1.897852444E0;-3.655036688E-1;4.674977303E0;8.677571297E0;9.863531280E0
1.900019059E0;-3.702892959E-1;4.665405750E0;8.677571297E0;9.859176872E0
1.902180944E0;-3.655036688E-1;4.679762840E0;8.663214684E0;9.853175215E0
1.904366674E0;-3.559323549E-1;4.670191765E0;8.672785759E0;9.856702886E0
1.906535590E0;-3.702892959E-1;4.674977303E0;8.658429146E0;9.846873728E0
1.908711128E0;-3.511467278E-1;4.670191765E0;8.663214684E0;9.848110671E0
1.910876348E0;-3.607180119E-1;4.665405750E0;8.653642654E0;9.837766997E0
1.913047197E0;-3.750749528E-1;4.674977303E0;8.639286041E0;9.830226717E0
1.915219285E0;-3.942175210E-1;4.674977303E0;8.629714966E0;9.822565888E0
1.917389563E0;-3.798605800E-1;4.646263599E0;8.629714966E0;9.808365811E0
1.919560817E0;-3.936193287E-1;4.651049137E0;8.624929428E0;9.806967008E0
1.921731106E0;-3.942175210E-1;4.655834675E0;8.610571861E0;9.796639819E0
1.923895494E0;-4.031906128E-1;4.651049137E0;8.605786324E0;9.790524960E0
1.926058215E0;-3.984049559E-1;4.655834675E0;8.648857117E0;9.830475698E0
1.928230649E0;-4.127618968E-1;4.622334957E0;8.611170769E0;9.782055758E0
1.930416358E0;-4.079762697E-1;4.631906509E0;8.615358353E0;9.790066501E0
1.932587531E0;-4.079762697E-1;4.622334957E0;8.615956306E0;9.786068065E0
1.934755103E0;-4.031906128E-1;4.603192329E0;8.635098457E0;9.793715723E0
1.936928149E0;-4.079762697E-1;4.564907551E0;8.639883995E0;9.780205572E0
1.939099606E0;-4.366901219E-1;4.579264164E0;8.673383713E0;9.817736174E0
1.941271176E0;-4.462614357E-1;4.622334957E0;8.691927910E0;9.854681147E0
1.943437974E0;-4.468596280E-1;4.708476543E0;8.663214684E0;9.870193693E0
1.945598549E0;-4.277170599E-1;4.737190723E0;8.657830238E0;9.878357266E0
1.947783322E0;-3.990031779E-1;4.727619171E0;8.691329956E0;9.901959552E0
1.949951199E0;-3.750749528E-1;4.694119930E0;8.696713448E0;9.889806263E0
1.952125282E0;-3.553341627E-1;4.636692047E0;8.711071014E0;9.874610561E0
1.954293139E0;-3.601198196E-1;4.627120972E0;8.706285477E0;9.866070219E0
1.956463580E0;-3.601198196E-1;4.612763882E0;8.692526817E0;9.847197540E0
1.958636666E0;-3.649054468E-1;4.612763882E0;8.692526817E0;9.847373715E0
1.960809059E0;-3.840480447E-1;4.631906509E0;8.677571297E0;9.843896303E0
1.962980039E0;-3.792623878E-1;4.622334957E0;8.673383713E0;9.835517548E0
1.965146431E0;-3.792623878E-1;4.636692047E0;8.696713448E0;9.862838227E0
1.967304024E0;-3.888336718E-1;4.636692047E0;8.677571297E0;9.846336800E0
1.969478024E0;-3.744767308E-1;4.617549419E0;8.682954788E0;9.841529318E0
1.971662524E0;-3.984049559E-1;4.617549419E0;8.697312355E0;9.855137308E0
1.973837400E0;-3.888336718E-1;4.631906509E0;8.725427628E0;9.886295404E0
1.976012551E0;-3.984049559E-1;4.607978344E0;8.716454506E0;9.867561506E0
1.978191852E0;-3.936193287E-1;4.617549419E0;8.739784241E0;9.892447998E0
1.980334531E0;-3.888336718E-1;4.607978344E0;8.740383148E0;9.888324106E0
1.982517067E0;-3.792623878E-1;4.598406792E0;8.745168686E0;9.887727764E0
1.984682626E0;-3.696911037E-1;4.607978344E0;8.730812073E0;9.879130295E0
1.986858102E0;-3.649054468E-1;4.584050179E0;8.730812073E0;9.867813916E0
1.989013691E0;-3.553341627E-1;4.607978344E0;8.730812073E0;9.878603456E0
1.991188607E0;-3.696911037E-1;4.598406792E0;8.721240044E0;9.866207196E0
1.993372506E0;-3.601198196E-1;4.598406792E0;8.730812073E0;9.874315711E0
1.995546375E0;-3.792623878E-1;4.593621254E0;8.730812073E0;9.872804851E0
1.997715910E0;-3.840480447E-1;4.579264164E0;8.711668968E0;9.849382183E0
1.999883176E0;-3.744767308E-1;4.584050179E0;8.697312355E0;9.838546186E0
2.002055408E0;-3.792623878E-1;4.598406792E0;8.702097893E0;9.849654447E0
2.004226286E0;-3.792623878E-1;4.612763882E0;8.692526817E0;9.847916178E0
2.006393890E0;-3.936193287E-1;4.607978344E0;8.697312355E0;9.850464090E0
2.008555958E0;-3.888336718E-1;4.612763882E0;8.692526817E0;9.848289431E0
2.010732369E0;-3.936193287E-1;4.598406792E0;8.687741280E0;9.837536772E0
2.012878538E0;-3.984049559E-1;4.612763882E0;8.663812637E0;9.823337852E0
2.015059041E0;-4.031906128E-1;4.607978344E0;8.673383713E0;9.829731030E0
2.017237162E0;-4.079762697E-1;4.603192329E0;8.687741280E0;9.840359384E0
2.019413735E0;-4.031906128E-1;4.627120972E0;8.687142372E0;9.850850407E0
2.021582396E0;-4.031906128E-1;4.612763882E0;8.687741280E0;9.844643307E0
2.023749195E0;-4.079762697E-1;4.622334957E0;8.677571297E0;9.840359175E0
2.025915190E0;-4.079762697E-1;4.612763882E0;8.673383713E0;9.832172715E0
2.028094777E0;-4.031906128E-1;4.622334957E0;8.672785759E0;9.835942047E0
2.030266560E0;-3.984049559E-1;4.598406792E0;8.649456024E0;9.803935998E0
2.032435953E0;-4.031906128E-1;4.617549419E0;8.654241562E0;9.817342936E0
2.034599008E0;-4.079762697E-1;4.603192329E0;8.630312920E0;9.789694855E0
2.036778177E0;-3.984049559E-1;4.612763882E0;8.620741844E0;9.785372097E0
2.038948731E0;-4.031906128E-1;4.603192329E0;8.611170769E0;9.772625251E0
2.041121866E0;-4.031906128E-1;4.607978344E0;8.606385231E0;9.770664964E0
2.043294504E0;-3.984049559E-1;4.603192329E0;8.596813202E0;9.759779883E0
2.045474090E0;-3.840480447E-1;4.584050179E0;8.601598740E0;9.754409763E0
2.047633707E0;-3.936193287E-1;4.593621254E0;8.577671051E0;9.738209952E0
2.049803740E0;-3.936193287E-1;4.588835716E0;8.601598740E0;9.757041062E0
2.051971608E0;-3.840480447E-1;4.579264164E0;8.596813202E0;9.747940829E0
2.054145212E0;-3.840480447E-1;4.574478626E0;8.606385231E0;9.754138319E0
2.056317637E0;-3.840480447E-1;4.574478626E0;8.606385231E0;9.754138319E0
2.058487682E0;-3.792623878E-1;4.569693089E0;8.615956306E0;9.760155632E0
2.060658874E0;-3.888336718E-1;4.574478626E0;8.611170769E0;9.758550524E0
2.062828664E0;-3.840480447E-1;4.555335999E0;8.596813202E0;9.736723072E0
2.064997966E0;-3.840480447E-1;4.564907551E0;8.606385231E0;9.749653358E0
2.067160258E0;-3.792623878E-1;4.579264164E0;8.596813202E0;9.747753458E0
2.069341755E0;-3.936193287E-1;4.560121536E0;8.611170769E0;9.752020642E0
2.071512196E0;-3.792623878E-1;4.579264164E0;8.596813202E0;9.747753458E0
2.073685791E0;-3.888336718E-1;4.579264164E0;8.620741844E0;9.769239574E0
2.075853435E0;-3.744767308E-1;4.579264164E0;8.601598740E0;9.751789271E0
2.078022197E0;-3.744767308E-1;4.574478626E0;8.620741844E0;9.766436273E0
2.080194987E0;-3.888336718E-1;4.584050179E0;8.611170769E0;9.763041005E0
2.082366445E0;-3.888336718E-1;4.584050179E0;8.625527382E0;9.775706127E0
2.084537273E0;-3.936193287E-1;4.598406792E0;8.625527382E0;9.782637876E0
2.086710633E0;-3.984049559E-1;4.588835716E0;8.630312920E0;9.782557990E0
2.088886527E0;-4.127618968E-1;4.593621254E0;8.635098457E0;9.789619705E0
2.091051209E0;-4.079762697E-1;4.593621254E0;8.625527382E0;9.780977634E0
2.093221995E0;-4.079762697E-1;4.584050179E0;8.625527382E0;9.776486245E0
2.095392761E0;-4.079762697E-1;4.593621254E0;8.635098457E0;9.789419096E0
2.097563630E0;-4.079762697E-1;4.588835716E0;8.615956306E0;9.770289706E0
2.099735393E0;-4.079762697E-1;4.588835716E0;8.625527382E0;9.778731026E0
2.101904918E0;-3.936193287E-1;4.584050179E0;8.630312920E0;9.780120311E0
2.104075919E0;-3.936193287E-1;4.584050179E0;8.639883995E0;9.788567192E0
2.106246604E0;-3.792623878E-1;4.584050179E0;8.649456024E0;9.796450659E0
2.108417878E0;-3.888336718E-1;4.588835716E0;8.654241562E0;9.803290359E0
2.110589376E0;-3.649054468E-1;4.588835716E0;8.663812637E0;9.810821506E0
2.112761018E0;-3.649054468E-1;4.607978344E0;8.673383713E0;9.828235113E0
2.114934002E0;-3.457628787E-1;4.588835716E0;8.692526817E0;9.835496310E0
2.117117871E0;-3.457628787E-1;4.593621254E0;8.697312355E0;9.841958667E0
2.119286581E0;-3.457628787E-1;4.598406792E0;8.716454506E0;9.861109276E0
2.121455852E0;-3.601198196E-1;4.607978344E0;8.725427628E0;9.874018330E0
2.123614493E0;-3.457628787E-1;4.593621254E0;8.740383148E0;9.880040778E0
2.125784079E0;-3.457628787E-1;4.588835716E0;8.740383148E0;9.877816701E0
2.127968417E0;-3.505485058E-1;4.607978344E0;8.744570732E0;9.890594823E0
2.130141827E0;-3.457628787E-1;4.598406792E0;8.759525299E0;9.899201001E0
2.132319134E0;-3.649054468E-1;4.593621254E0;8.730812073E0;9.872263756E0
2.134513704E0;-3.649054468E-1;4.588835716E0;8.726025581E0;9.865804157E0
2.136679466E0;-3.553341627E-1;4.588835716E0;8.726025581E0;9.865454781E0
2.138821800E0;-3.553341627E-1;4.588835716E0;8.735597610E0;9.873922281E0
2.140984468E0;-3.553341627E-1;4.574478626E0;8.745168686E0;9.875732500E0
2.143160229E0;-3.744767308E-1;4.584050179E0;8.754739761E0;9.889348672E0
2.145354942E0;-3.553341627E-1;4.560121536E0;8.730812073E0;9.856371048E0
2.147506350E0;-3.696911037E-1;4.584050179E0;8.711668968E0;9.851059017E0
2.149677878E0;-3.601198196E-1;4.588835716E0;8.730812073E0;9.869862155E0
2.151843895E0;-3.457628787E-1;4.588835716E0;8.697312355E0;9.839725982E0
2.154016228E0;-3.553341627E-1;4.569693089E0;8.678169250E0;9.814223292E0
2.156176801E0;-3.601198196E-1;4.574478626E0;8.687741280E0;9.825089797E0
2.158361555E0;-3.601198196E-1;4.579264164E0;8.687741280E0;9.827318816E0
2.160531048E0;-3.649054468E-1;4.588835716E0;8.711668968E0;9.853108414E0
2.162706006E0;-3.744767308E-1;4.588835716E0;8.726025581E0;9.866162805E0
2.164871554E0;-3.840480447E-1;4.588835716E0;8.706883430E0;9.849605332E0
2.167028445E0;-3.984049559E-1;4.584050179E0;8.697312355E0;9.839486000E0
2.169204023E0;-4.079762697E-1;4.593621254E0;8.692526817E0;9.840112974E0
2.171385542E0;-4.127618968E-1;4.603192329E0;8.668598175E0;9.823662572E0
2.173559848E0;-4.271188378E-1;4.579264164E0;8.659027100E0;9.804633654E0
2.175730380E0;-4.319044948E-1;4.593621254E0;8.639883995E0;9.794666567E0
2.177895389E0;-4.319044948E-1;4.593621254E0;8.615956306E0;9.773566432E0
2.180057172E0;-4.223332107E-1;4.588835716E0;8.615956306E0;9.770899736E0
2.182242495E0;-4.127618968E-1;4.588835716E0;8.620741844E0;9.774711022E0
2.184412580E0;-4.031906128E-1;4.607978344E0;8.611170769E0;9.774880516E0
2.186584476E0;-3.936193287E-1;4.584050179E0;8.611170769E0;9.763232775E0
2.188748203E0;-3.936193287E-1;4.603192329E0;8.601598740E0;9.763801343E0
2.190938999E0;-3.888336718E-1;4.617549419E0;8.625527382E0;9.791459385E0
2.193094953E0;-3.984049559E-1;4.617549419E0;8.615956306E0;9.783414139E0
2.195267805E0;-3.649054468E-1;4.622334957E0;8.620741844E0;9.788581429E0
2.197433262E0;-3.601198196E-1;4.607978344E0;8.625527382E0;9.785850669E0
2.199607537E0;-3.505485058E-1;4.607978344E0;8.611170769E0;9.772850694E0
2.201773908E0;-3.505485058E-1;4.607978344E0;8.611170769E0;9.772850694E0
2.203951755E0;-3.744767308E-1;4.598406792E0;8.625527382E0;9.781886345E0
2.206120121E0;-3.840480447E-1;4.593621254E0;8.615956306E0;9.771568564E0
2.208292383E0;-3.696911037E-1;4.588835716E0;8.630312920E0;9.781430664E0
2.210461571E0;-3.792623878E-1;4.588835716E0;8.644669533E0;9.794466015E0
2.212638391E0;-3.984049559E-1;4.584050179E0;8.635098457E0;9.784537185E0
2.214802382E0;-3.744767308E-1;4.593621254E0;8.644669533E0;9.796524913E0
2.216971521E0;-3.888336718E-1;4.593621254E0;8.630312920E0;9.784418682E0
2.219145461E0;-3.888336718E-1;4.579264164E0;8.639883995E0;9.786135466E0
2.221312310E0;-3.840480447E-1;4.584050179E0;8.630312920E0;9.779739773E0
2.223463312E0;-3.649054468E-1;4.593621254E0;8.639883995E0;9.791940955E0
2.225659855E0;-3.696911037E-1;4.588835716E0;8.639883995E0;9.789876413E0
2.227829411E0;-3.696911037E-1;4.584050179E0;8.625527382E0;9.774963436E0
2.230007226E0;-3.792623878E-1;4.593621254E0;8.635098457E0;9.788264481E0
2.232171533E0;-3.649054468E-1;4.593621254E0;8.625527382E0;9.779275782E0
2.234344802E0;-3.649054468E-1;4.603192329E0;8.620741844E0;9.779556511E0
2.236514317E0;-3.649054468E-1;4.598406792E0;8.620741844E0;9.777304892E0
2.238685145E0;-3.457628787E-1;4.584050179E0;8.620741844E0;9.769864787E0
2.240854598E0;-3.553341627E-1;4.603192329E0;8.611170769E0;9.770767830E0
2.243025700E0;-3.649054468E-1;4.607978344E0;8.615956306E0;9.777592929E0
2.245197809E0;-3.649054468E-1;4.593621254E0;8.620741844E0;9.775055097E0
2.247369044E0;-3.511467278E-1;4.612763882E0;8.601598740E0;9.766698292E0
2.249539046E0;-3.457628787E-1;4.598406792E0;8.620741844E0;9.776609174E0
2.251710382E0;-3.505485058E-1;4.588835716E0;8.635098457E0;9.784948792E0
2.253879389E0;-3.505485058E-1;4.584050179E0;8.606385231E0;9.757369883E0
2.256045466E0;-3.457628787E-1;4.593621254E0;8.615956306E0;9.770138754E0
2.258222692E0;-3.505485058E-1;4.598406792E0;8.625527382E0;9.780999534E0
2.260393030E0;-3.314059377E-1;4.588835716E0;8.644669533E0;9.792729673E0
2.262566340E0;-3.409772217E-1;4.603192329E0;8.625527382E0;9.782912026E0
2.264734899E0;-3.457628787E-1;4.584050179E0;8.639883995E0;9.786759599E0
2.266903752E0;-3.457628787E-1;4.588835716E0;8.635098457E0;9.784778514E0
2.269061437E0;-3.601198196E-1;4.584050179E0;8.630312920E0;9.778829348E0
2.271234644E0;-3.553341627E-1;4.579264164E0;8.639883995E0;9.784861680E0
2.273417303E0;-3.649054468E-1;4.584050179E0;8.635098457E0;9.783230417E0
2.275587601E0;-3.696911037E-1;4.579264164E0;8.639883995E0;9.785393566E0
2.277756201E0;-3.840480447E-1;4.593621254E0;8.639883995E0;9.792673005E0
2.279953058E0;-3.744767308E-1;4.598406792E0;8.630312920E0;9.786106424E0
2.282103632E0;-3.792623878E-1;4.598406792E0;8.644669533E0;9.798953838E0
2.284276475E0;-3.840480447E-1;4.598406792E0;8.630312920E0;9.786477355E0
2.286436529E0;-3.744767308E-1;4.593621254E0;8.635098457E0;9.788080221E0
2.288602352E0;-3.936193287E-1;4.579264164E0;8.635098457E0;9.782102117E0
2.290787491E0;-3.840480447E-1;4.588835716E0;8.654241562E0;9.803101710E0
2.292957403E0;-3.792623878E-1;4.579264164E0;8.649456024E0;9.794212054E0
2.295130692E0;-3.840480447E-1;4.593621254E0;8.630312920E0;9.784229669E0
2.297298427E0;-3.840480447E-1;4.598406792E0;8.639883995E0;9.794918753E0
2.299465429E0;-3.840480447E-1;4.584050179E0;8.630312920E0;9.779739773E0
2.301622381E0;-3.744767308E-1;4.588835716E0;8.620741844E0;9.773169189E0
2.303814917E0;-3.696911037E-1;4.584050179E0;8.611170769E0;9.762297351E0
2.305983486E0;-3.744767308E-1;4.584050179E0;8.615956306E0;9.766701180E0
2.308159928E0;-3.696911037E-1;4.588835716E0;8.601598740E0;9.756105044E0
2.310323645E0;-3.649054468E-1;4.569693089E0;8.615956306E0;9.759608290E0
2.312495835E0;-3.649054468E-1;4.579264164E0;8.635098457E0;9.780988786E0
2.314663672E0;-3.649054468E-1;4.564907551E0;8.630312920E0;9.770048005E0
2.316828366E0;-3.744767308E-1;4.564907551E0;8.649456024E0;9.787323602E0
2.319007687E0;-3.601198196E-1;4.579264164E0;8.663812637E0;9.806171321E0
2.321175269E0;-3.649054468E-1;4.574478626E0;8.668598175E0;9.808343642E0
2.323334703E0;-3.553341627E-1;4.579264164E0;8.668598175E0;9.810225123E0
2.325515642E0;-3.553341627E-1;4.569693089E0;8.697312355E0;9.831154535E0
2.327659563E0;-3.649054468E-1;4.574478626E0;8.706883430E0;9.842196389E0
2.329850795E0;-3.505485058E-1;4.569693089E0;8.711668968E0;9.843686067E0
2.332013749E0;-3.601198196E-1;4.579264164E0;8.702097893E0;9.840012922E0
2.334186266E0;-3.409772217E-1;4.555335999E0;8.697312355E0;9.823980544E0
2.336378639E0;-3.457628787E-1;4.560121536E0;8.697312355E0;9.826367721E0
2.338549567E0;-3.601198196E-1;4.555335999E0;8.706883430E0;9.833137415E0
2.340720801E0;-3.361915946E-1;4.560121536E0;8.687741280E0;9.817564961E0
2.342880897E0;-3.601198196E-1;4.564907551E0;8.697312355E0;9.829105220E0
2.345034553E0;-3.505485058E-1;4.564907551E0;8.692526817E0;9.824524806E0
2.347229896E0;-3.409772217E-1;4.569693089E0;8.687741280E0;9.822179439E0
2.349401607E0;-3.505485058E-1;4.569693089E0;8.687741280E0;9.822516364E0
2.351573156E0;-3.361915946E-1;4.574478626E0;8.697312355E0;9.832706733E0
2.353744705E0;-3.170489967E-1;4.555335999E0;8.702097893E0;9.827416439E0
2.355914640E0;-3.218346536E-1;4.569693089E0;8.711668968E0;9.842705354E0
2.358091174E0;-3.409772217E-1;4.560121536E0;8.716454506E0;9.843147517E0
2.360255988E0;-3.361915946E-1;4.555335999E0;8.711668968E0;9.836528202E0
2.362426419E0;-3.409772217E-1;4.550550461E0;8.716454506E0;9.838717097E0
2.364593289E0;-3.409772217E-1;4.555335999E0;8.706883430E0;9.832454963E0
2.366751666E0;-3.505485058E-1;4.574478626E0;8.706883430E0;9.841674554E0
2.368925830E0;-3.314059377E-1;4.560121536E0;8.702097893E0;9.830109158E0
2.371110481E0;-3.553341627E-1;4.569693089E0;8.673383713E0;9.809991963E0
2.373285916E0;-3.505485058E-1;4.569693089E0;8.711668968E0;9.843686067E0
2.375453854E0;-3.601198196E-1;4.574478626E0;8.706883430E0;9.842020121E0
2.377615690E0;-3.505485058E-1;4.579264164E0;8.678169250E0;9.818511398E0
2.379774188E0;-3.314059377E-1;4.584050179E0;8.706883430E0;9.845464184E0
2.381965370E0;-2.979064286E-1;4.588835716E0;8.678169250E0;9.821241419E0
2.384135313E0;-3.601198196E-1;4.593621254E0;8.635098457E0;9.787541462E0
2.386310392E0;-4.031906128E-1;4.569693089E0;8.654241562E0;9.794924941E0
2.388473336E0;-3.840480447E-1;4.545764923E0;8.673383713E0;9.799951871E0
2.390632515E0;-3.505485058E-1;4.526622295E0;8.687741280E0;9.802552841E0
2.392806120E0;-3.218346536E-1;4.512265205E0;8.673981667E0;9.782743622E0
2.394990863E0;-3.026920557E-1;4.545764923E0;8.687741280E0;9.809813951E0
2.397163359E0;-3.074777126E-1;4.564907551E0;8.721240044E0;9.848499956E0
2.399341083E0;-3.074777126E-1;4.584050179E0;8.721240044E0;9.857387406E0
2.401527291E0;-3.170489967E-1;4.588835716E0;8.711668968E0;9.851452152E0
2.403671863E0;-3.122633696E-1;4.579264164E0;8.702097893E0;9.838377734E0
2.405842243E0;-3.074777126E-1;4.574478626E0;8.682954788E0;9.819068240E0
2.408008757E0;-3.026920557E-1;4.569693089E0;8.673383713E0;9.808226263E0
2.410183947E0;-3.170489967E-1;4.555335999E0;8.673383713E0;9.801999345E0
2.412347502E0;-3.170489967E-1;4.550550461E0;8.678169250E0;9.804011990E0
2.414525725E0;-3.170489967E-1;4.560121536E0;8.673383713E0;9.804224269E0
2.416685556E0;-3.122633696E-1;4.564907551E0;8.702097893E0;9.831703672E0
2.418871877E0;-3.170489967E-1;4.574478626E0;8.682954788E0;9.819372619E0
2.421038562E0;-3.074777126E-1;4.593621254E0;8.711668968E0;9.853378861E0
2.423209512E0;-2.931207716E-1;4.569693089E0;8.706883430E0;9.837572555E0
2.425384683E0;-2.979064286E-1;4.588835716E0;8.730812073E0;9.867788046E0
2.427553833E0;-2.979064286E-1;4.584050179E0;8.706883430E0;9.844393498E0
2.429726734E0;-2.787638307E-1;4.579264164E0;8.735597610E0;9.867017542E0
2.431892800E0;-2.931207716E-1;4.550550461E0;8.735597610E0;9.854141002E0
2.434059966E0;-2.787638307E-1;4.579264164E0;8.730812073E0;9.862780998E0
2.436236847E0;-2.979064286E-1;4.574478626E0;8.740383148E0;9.869594750E0
2.438407582E0;-2.931207716E-1;4.584050179E0;8.711668968E0;9.848482728E0
2.440580412E0;-3.026920557E-1;4.579264164E0;8.726025581E0;9.859249729E0
2.442748249E0;-3.074777126E-1;4.579264164E0;8.730812073E0;9.863634334E0
2.444908193E0;-3.170489967E-1;4.584050179E0;8.702097893E0;9.840759312E0
2.447093740E0;-3.218346536E-1;4.593621254E0;8.711668968E0;9.853837323E0
2.449262104E0;-3.314059377E-1;4.579264164E0;8.692526817E0;9.830539794E0
2.451436339E0;-3.218346536E-1;4.584050179E0;8.702097893E0;9.840914659E0
2.453608978E0;-3.218346536E-1;4.584050179E0;8.668598175E0;9.811304088E0
2.455796651E0;-3.361915946E-1;4.574478626E0;8.663812637E0;9.803087723E0
2.457946289E0;-3.457628787E-1;4.579264164E0;8.639883995E0;9.784518777E0
2.460110351E0;-3.505485058E-1;4.564907551E0;8.649456024E0;9.786437284E0
2.462259347E0;-3.505485058E-1;4.579264164E0;8.620741844E0;9.767790665E0
2.464457132E0;-3.505485058E-1;4.569693089E0;8.625527382E0;9.767533045E0
2.466626078E0;-3.601198196E-1;4.574478626E0;8.606385231E0;9.753225504E0
2.468801148E0;-3.744767308E-1;4.588835716E0;8.592027664E0;9.747850298E0
2.470972697E0;-3.553341627E-1;4.584648132E0;8.568099976E0;9.724073121E0
2.473143158E0;-3.649054468E-1;4.584648132E0;8.568099976E0;9.724427576E0
2.475317993E0;-3.744767308E-1;4.603192329E0;8.558527946E0;9.725122778E0
2.477492798E0;-3.601198196E-1;4.599005222E0;8.553742409E0;9.718386930E0
2.479644887E0;-3.744767308E-1;4.589433670E0;8.548956871E0;9.710190411E0
2.481827434E0;-3.744767308E-1;4.599005222E0;8.539385796E0;9.706296494E0
2.483993744E0;-3.696911037E-1;4.594219685E0;8.534600258E0;9.699635436E0
2.486170024E0;-3.744767308E-1;4.603790760E0;8.548956871E0;9.716984397E0
2.488334758E0;-4.079762697E-1;4.607978344E0;8.563314438E0;9.732947304E0
2.490496816E0;-3.888336718E-1;4.603192329E0;8.572885513E0;9.738323124E0
2.492681701E0;-3.936193287E-1;4.593621254E0;8.563314438E0;9.725566645E0
2.494852529E0;-4.031906128E-1;4.598406792E0;8.529814720E0;9.698744602E0
2.497026642E0;-4.079762697E-1;4.588835716E0;8.544171333E0;9.707044949E0
2.499186789E0;-3.936193287E-1;4.598406792E0;8.534600258E0;9.702560629E0
2.501335216E0;-3.840480447E-1;4.603192329E0;8.563314438E0;9.729708458E0
2.503535961E0;-3.888336718E-1;4.588835716E0;8.553742409E0;9.714685484E0
2.505705618E0;-3.792623878E-1;4.588835716E0;8.572885513E0;9.731167413E0
2.507884878E0;-3.840480447E-1;4.588835716E0;8.568099976E0;9.727139524E0
2.510048737E0;-3.840480447E-1;4.598406792E0;8.582456589E0;9.744300848E0
2.512217469E0;-3.792623878E-1;4.574478626E0;8.596813202E0;9.745506241E0
2.514362468E0;-3.792623878E-1;4.584050179E0;8.620741844E0;9.771107713E0
2.516537263E0;-3.696911037E-1;4.574478626E0;8.615956306E0;9.762029978E0
2.518715975E0;-3.696911037E-1;4.598406792E0;8.635098457E0;9.790145142E0
2.520890392E0;-3.649054468E-1;4.574478626E0;8.644669533E0;9.787201950E0
2.523053163E0;-3.840480447E-1;4.584050179E0;8.659027100E0;9.805088437E0
2.525232342E0;-3.792623878E-1;4.584050179E0;8.644669533E0;9.792224841E0
2.527404085E0;-3.696911037E-1;4.574478626E0;8.663812637E0;9.804293734E0
2.529577780E0;-3.649054468E-1;4.579264164E0;8.673383713E0;9.814805209E0
2.531747010E0;-3.649054468E-1;4.579264164E0;8.702097893E0;9.840189226E0
2.533928620E0;-3.840480447E-1;4.569693089E0;8.687741280E0;9.823768949E0
2.536086773E0;-3.792623878E-1;4.564907551E0;8.706883430E0;9.838294567E0
2.538257987E0;-3.649054468E-1;4.560121536E0;8.716454506E0;9.844005463E0
2.540425406E0;-3.649054468E-1;4.560121536E0;8.697312355E0;9.827059917E0
2.542599977E0;-3.696911037E-1;4.564907551E0;8.721240044E0;9.850638576E0
2.544772849E0;-3.696911037E-1;4.564907551E0;8.697312355E0;9.829460548E0
2.546942751E0;-3.553341627E-1;4.579264164E0;8.711668968E0;9.848304365E0
2.549112836E0;-3.553341627E-1;4.574478626E0;8.702097893E0;9.837612759E0
2.551283927E0;-3.409772217E-1;4.584050179E0;8.706883430E0;9.845791008E0
2.553453900E0;-3.409772217E-1;4.593621254E0;8.706883430E0;9.850250797E0
2.555625541E0;-3.457628787E-1;4.603192329E0;8.697312355E0;9.846429495E0
2.557796328E0;-3.361915946E-1;4.593621254E0;8.702097893E0;9.845856425E0
2.559967551E0;-3.218346536E-1;4.598406792E0;8.706883430E0;9.851839505E0
2.562138257E0;-3.314059377E-1;4.598406792E0;8.702097893E0;9.847927835E0
2.564305311E0;-3.409772217E-1;4.598406792E0;8.697312355E0;9.844026244E0
2.566462934E0;-3.457628787E-1;4.579264164E0;8.702097893E0;9.839497954E0
2.568652052E0;-3.409772217E-1;4.598406792E0;8.692526817E0;9.839798421E0
2.570821637E0;-3.649054468E-1;4.603192329E0;8.673383713E0;9.825992094E0
2.572996727E0;-3.792623878E-1;4.612763882E0;8.663812637E0;9.822580109E0
2.575162743E0;-3.744767308E-1;4.617549419E0;8.663812637E0;9.824644771E0
2.577334139E0;-3.888336718E-1;4.603192329E0;8.659027100E0;9.814240753E0
2.579506217E0;-3.840480447E-1;4.622334957E0;8.654241562E0;9.818827342E0
2.581678184E0;-3.840480447E-1;4.612763882E0;8.625527382E0;9.789014565E0
2.583846988E0;-4.031906128E-1;4.607978344E0;8.644669533E0;9.804404032E0
2.586018537E0;-3.840480447E-1;4.612763882E0;8.635098457E0;9.797449102E0
2.588186262E0;-3.792623878E-1;4.612763882E0;8.630312920E0;9.793045067E0
2.590352348E0;-3.840480447E-1;4.598406792E0;8.639883995E0;9.794918753E0
2.592529178E0;-3.888336718E-1;4.598406792E0;8.644669533E0;9.799328955E0
2.594701531E0;-3.744767308E-1;4.588835716E0;8.654241562E0;9.802731408E0
2.596874414E0;-3.792623878E-1;4.588835716E0;8.630312920E0;9.781797088E0
2.599045078E0;-3.888336718E-1;4.617549419E0;8.635098457E0;9.799891817E0
2.601214623E0;-3.792623878E-1;4.622334957E0;8.630312920E0;9.797556915E0
2.603385989E0;-3.840480447E-1;4.612763882E0;8.611170769E0;9.776366684E0
2.605554579E0;-4.031906128E-1;4.603192329E0;8.615956306E0;9.776842300E0
2.607723179E0;-3.888336718E-1;4.607978344E0;8.644669533E0;9.803824120E0
2.609895308E0;-3.888336718E-1;4.598406792E0;8.630312920E0;9.786666324E0
2.612058352E0;-3.984049559E-1;4.603192329E0;8.620741844E0;9.780863769E0
2.614240644E0;-4.079762697E-1;4.598406792E0;8.625527382E0;9.783226067E0
2.616414392E0;-4.127618968E-1;4.588835716E0;8.639883995E0;9.791597472E0
2.618599186E0;-4.031906128E-1;4.593621254E0;8.635098457E0;9.789220820E0
2.620765211E0;-4.079762697E-1;4.593621254E0;8.635098457E0;9.789419096E0
2.622926975E0;-4.031906128E-1;4.598406792E0;8.625527382E0;9.783027666E0
2.625106958E0;-4.175475538E-1;4.598406792E0;8.615956306E0;9.775192789E0
2.627276809E0;-4.223332107E-1;4.598406792E0;8.606385231E0;9.766963556E0
2.629450748E0;-4.127618968E-1;4.598406792E0;8.582456589E0;9.745474771E0
2.631615167E0;-4.127618968E-1;4.598406792E0;8.596813202E0;9.758120446E0
2.633777632E0;-4.223332107E-1;4.593621254E0;8.611170769E0;9.768929500E0
2.635960840E0;-4.079762697E-1;4.612763882E0;8.620741844E0;9.785766460E0
2.638132196E0;-4.127618968E-1;4.622334957E0;8.635098457E0;9.803125941E0
2.640304926E0;-3.984049559E-1;4.607978344E0;8.635098457E0;9.795770327E0
2.642474186E0;-3.840480447E-1;4.622334957E0;8.649456024E0;9.814609665E0
2.644645533E0;-3.984049559E-1;4.627120972E0;8.630312920E0;9.800575294E0
2.646799047E0;-3.936193287E-1;4.631906509E0;8.630312920E0;9.802642255E0
2.648973455E0;-3.936193287E-1;4.631906509E0;8.653642654E0;9.823188142E0
2.651157800E0;-3.888336718E-1;4.641477585E0;8.624929428E0;9.802240225E0
2.653330815E0;-3.984049559E-1;4.651049137E0;8.639286041E0;9.819788587E0
2.655498591E0;-3.744767308E-1;4.636692047E0;8.648857117E0;9.820482442E0
2.657669713E0;-3.750749528E-1;4.646263599E0;8.634500504E0;9.812392450E0
2.659841089E0;-3.894318938E-1;4.651049137E0;8.629714966E0;9.811008902E0
2.662009984E0;-3.846462369E-1;4.670191765E0;8.615358353E0;9.807295417E0
2.664185256E0;-3.798605800E-1;4.670191765E0;8.620143890E0;9.811313157E0
2.666376155E0;-3.702892959E-1;4.689334393E0;8.620143890E0;9.820073925E0
2.668543258E0;-3.798605800E-1;4.703691006E0;8.615358353E0;9.823105552E0
2.670696396E0;-3.798605800E-1;4.689334393E0;8.610571861E0;9.812038467E0
2.672862259E0;-3.990031779E-1;4.694119930E0;8.596215248E0;9.802493665E0
2.675031988E0;-3.990031779E-1;4.689334393E0;8.586644173E0;9.791808757E0
2.677201655E0;-3.894318938E-1;4.708476543E0;8.596215248E0;9.808992056E0
2.679355972E0;-3.894318938E-1;4.718048096E0;8.591429710E0;9.809398529E0
2.681550410E0;-3.846462369E-1;4.708476543E0;8.581858635E0;9.796223850E0
2.683720485E0;-3.750749528E-1;4.732405186E0;8.586644173E0;9.811564514E0
2.685897731E0;-3.846462369E-1;4.732405186E0;8.581858635E0;9.807747407E0
2.688058436E0;-3.750749528E-1;4.722833633E0;8.586644173E0;9.806951458E0
2.690220006E0;-3.846462369E-1;4.741976261E0;8.591429710E0;9.820741115E0
2.692404170E0;-3.894318938E-1;4.737190723E0;8.572287560E0;9.801874675E0
2.694574743E0;-3.894318938E-1;4.746761799E0;8.557929993E0;9.793955816E0
2.696749212E0;-3.798605800E-1;4.756333351E0;8.567501068E0;9.806583277E0
2.698917344E0;-3.846462369E-1;4.770689964E0;8.557332039E0;9.804864460E0
2.701087936E0;-3.846462369E-1;4.761118889E0;8.538787842E0;9.784022874E0
2.703261165E0;-4.037888348E-1;4.785047054E0;8.566903114E0;9.820974987E0
2.705427180E0;-4.181457460E-1;4.775475979E0;8.542975426E0;9.796042355E0
2.707588782E0;-3.990031779E-1;4.804189682E0;8.542975426E0;9.809274752E0
2.709769730E0;-3.990031779E-1;4.794618607E0;8.538188934E0;9.800420470E0
2.711937588E0;-4.037888348E-1;4.799404144E0;8.542975426E0;9.807127749E0
2.714117285E0;-4.133601189E-1;4.813760757E0;8.542975426E0;9.814560018E0
2.716283992E0;-3.990031779E-1;4.837689400E0;8.538188934E0;9.821563651E0
2.718456977E0;-3.894318938E-1;4.842474937E0;8.533403397E0;9.819378506E0
2.720625138E0;-3.990031779E-1;4.828117847E0;8.523832321E0;9.804368563E0
2.722795019E0;-3.942175210E-1;4.852046013E0;8.514261246E0;9.807670596E0
2.724966701E0;-3.894318938E-1;4.847260475E0;8.509475708E0;9.800957511E0
2.727137397E0;-3.942175210E-1;4.866403103E0;8.504690170E0;9.806479567E0
2.729308793E0;-3.463610709E-1;4.880760193E0;8.533403397E0;9.836704711E0
2.731476467E0;-3.750749528E-1;4.909473896E0;8.494520187E0;9.818375037E0
2.733636043E0;-4.277170599E-1;4.890331268E0;8.475975990E0;9.794919642E0
2.735823889E0;-4.372883439E-1;4.861617565E0;8.461619377E0;9.768600152E0
2.737994015E0;-4.325026870E-1;4.832903385E0;8.456833839E0;9.749977041E0
2.740168474E0;-4.037888348E-1;4.785047054E0;8.457431793E0;9.725629711E0
2.742331702E0;-3.894318938E-1;4.799404144E0;8.480761528E0;9.752397317E0
2.744490923E0;-3.798605800E-1;4.832903385E0;8.461619377E0;9.751935791E0
2.746679593E0;-4.037888348E-1;4.856831551E0;8.466404915E0;9.768923703E0
2.748854947E0;-3.798605800E-1;4.885545731E0;8.480761528E0;9.794700978E0
2.751021155E0;-4.085744619E-1;4.890331268E0;8.475975990E0;9.794102409E0
2.753182411E0;-4.181457460E-1;4.895116806E0;8.471190453E0;9.792756614E0
2.755349342E0;-4.133601189E-1;4.885545731E0;8.447261810E0;9.767069968E0
2.757532010E0;-4.325026870E-1;4.856831551E0;8.432905197E0;9.741137580E0
2.759704108E0;-4.277170599E-1;4.856831551E0;8.432905197E0;9.740926273E0
2.761875312E0;-4.468596280E-1;4.856831551E0;8.437690735E0;9.745928441E0
2.764042519E0;-4.516452849E-1;4.875974178E0;8.432905197E0;9.751563860E0
2.766206001E0;-4.516452849E-1;4.890331268E0;8.452047348E0;9.775296811E0
2.768373614E0;-4.612165689E-1;4.895116806E0;8.442476273E0;9.769866677E0
2.770557970E0;-4.564309120E-1;4.895116806E0;8.437690735E0;9.765506779E0
2.772730456E0;-4.660021961E-1;4.914259434E0;8.413164139E0;9.754405910E0
2.774902677E0;-4.707878530E-1;4.928616524E0;8.413164139E0;9.761876503E0
2.777066790E0;-4.851447940E-1;4.919044971E0;8.384450912E0;9.733004983E0
2.779223823E0;-4.851447940E-1;4.942973614E0;8.374878883E0;9.736886049E0
2.781398008E0;-5.042873621E-1;4.962115765E0;8.379665375E0;9.751701923E0
2.783580208E0;-5.138586760E-1;4.947759151E0;8.365307808E0;9.732561126E0
2.785754087E0;-5.090730190E-1;4.971687317E0;8.365307808E0;9.744496130E0
2.787925993E0;-4.995017350E-1;4.962115765E0;8.350951195E0;9.726791902E0
2.790097887E0;-5.042873621E-1;4.990829945E0;8.346165657E0;9.737616261E0
2.792267016E0;-5.042873621E-1;5.000401020E0;8.336593628E0;9.734326347E0
2.794438068E0;-5.138586760E-1;4.995615482E0;8.327022552E0;9.724172426E0
2.796606901E0;-5.186443329E-1;5.014758110E0;8.312665939E0;9.721995982E0
2.798771381E0;-5.282155871E-1;5.024329185E0;8.317451477E0;9.731541221E0
2.800921028E0;-5.473581553E-1;5.014758110E0;8.298309326E0;9.711299477E0
2.803120725E0;-5.377869010E-1;5.038686275E0;8.292924881E0;9.718548102E0
2.805291278E0;-5.521438122E-1;5.048257351E0;8.283353806E0;9.716157437E0
2.807470213E0;-5.425725579E-1;5.043471813E0;8.273782730E0;9.704971591E0
2.809630105E0;-5.431707501E-1;5.067399979E0;8.254639626E0;9.701167577E0
2.811787484E0;-5.335994363E-1;5.067399979E0;8.264211655E0;9.708782888E0
2.813961566E0;-5.431707501E-1;5.062614441E0;8.245068550E0;9.690523971E0
2.816145791E0;-5.383850932E-1;5.072185993E0;8.245068550E0;9.695260938E0
2.818320840E0;-5.431707501E-1;5.067399979E0;8.225926399E0;9.676747498E0
2.820490711E0;-5.431707501E-1;5.072185993E0;8.201997757E0;9.658927084E0
2.822659086E0;-5.000999570E-1;5.067399979E0;8.193024635E0;9.646465424E0
2.824831481E0;-4.953143001E-1;5.076971531E0;8.206783295E0;9.662932693E0
2.827000986E0;-5.048855543E-1;5.072185993E0;8.211568832E0;9.664980231E0
2.829172810E0;-4.953143001E-1;5.062614441E0;8.202595711E0;9.651838044E0
2.831341490E0;-4.857429862E-1;5.062614441E0;8.226524353E0;9.671696550E0
2.833513091E0;-4.905286431E-1;5.062614441E0;8.235497475E0;9.679571374E0
2.835684101E0;-4.809573591E-1;5.053043365E0;8.221738815E0;9.662378402E0
2.837854776E0;-4.857429862E-1;5.057828903E0;8.245666504E0;9.685483754E0
2.840026356E0;-4.905286431E-1;5.067399979E0;8.245068550E0;9.690217556E0
2.842194650E0;-4.809573591E-1;5.062614441E0;8.240283012E0;9.683163175E0
2.844353179E0;-4.713860750E-1;5.062614441E0;8.236095428E0;9.679128975E0
2.846526377E0;-4.761717021E-1;5.067399979E0;8.254639626E0;9.697647002E0
2.848709360E0;-4.666004181E-1;5.081757069E0;8.259425163E0;9.708762788E0
2.850878295E0;-4.522434771E-1;5.057828903E0;8.255238533E0;9.692013238E0
2.853041787E0;-4.474578202E-1;5.057828903E0;8.273782730E0;9.707591482E0
2.855219919E0;-4.666004181E-1;5.048257351E0;8.264809608E0;9.695859740E0
2.857380870E0;-4.570291340E-1;5.053043365E0;8.274380684E0;9.706054738E0
2.859569488E0;-4.618147612E-1;5.043471813E0;8.264809608E0;9.693139773E0
2.861735046E0;-4.713860750E-1;5.043471813E0;8.255238533E0;9.685441446E0
2.863913919E0;-4.713860750E-1;5.038686275E0;8.250452042E0;9.678869929E0
2.866084187E0;-4.666004181E-1;5.024329185E0;8.260024071E0;9.679338684E0
2.868237834E0;-4.618147612E-1;5.029115200E0;8.269595146E0;9.689761424E0
2.870418843E0;-4.666004181E-1;5.024329185E0;8.279166222E0;9.695679091E0
2.872587616E0;-4.761717021E-1;5.029115200E0;8.303094864E0;9.719059806E0
2.874762807E0;-4.809573591E-1;5.029115200E0;8.327022552E0;9.739744569E0
2.876932658E0;-4.857429862E-1;5.029115200E0;8.322237015E0;9.735891067E0
2.879105245E0;-4.851447940E-1;5.024329185E0;8.355736732E0;9.762048227E0
2.881274292E0;-4.995017350E-1;5.024329185E0;8.355736732E0;9.762772254E0
2.883443593E0;-4.995017350E-1;5.029115200E0;8.355736732E0;9.765236199E0
2.885613983E0;-5.186443329E-1;5.033302307E0;8.359924316E0;9.771973119E0
2.887785147E0;-5.234299302E-1;5.023731232E0;8.346165657E0;9.755528461E0
2.889955983E0;-5.377869010E-1;5.038087845E0;8.345566750E0;9.763197645E0
2.892128307E0;-5.665007830E-1;5.023731232E0;8.327022552E0;9.741565748E0
2.894299317E0;-5.425725579E-1;5.009374142E0;8.322237015E0;9.728712310E0
2.896466584E0;-5.569294691E-1;5.004588604E0;8.317451477E0;9.722966451E0
2.898627493E0;-5.665007830E-1;4.999803066E0;8.307880402E0;9.712869329E0
2.900806010E0;-5.760720372E-1;4.995017052E0;8.322237015E0;9.723254767E0
2.902983165E0;-5.712863803E-1;4.995017052E0;8.322237015E0;9.722972406E0
2.905155793E0;-5.712863803E-1;5.014159679E0;8.336593628E0;9.745099216E0
2.907325156E0;-5.617151260E-1;5.038087845E0;8.331210136E0;9.752277444E0
2.909500478E0;-5.712863803E-1;5.057230473E0;8.326424599E0;9.758652303E0
2.911688863E0;-5.282155871E-1;5.047659397E0;8.326424599E0;9.751267799E0
2.913835481E0;-5.186443329E-1;5.047659397E0;8.331210136E0;9.754840833E0
2.916006451E0;-5.048855543E-1;5.057828903E0;8.326424599E0;9.755300571E0
2.918171022E0;-4.953143001E-1;5.072185993E0;8.297710419E0;9.737782355E0
2.920356476E0;-4.809573591E-1;5.062614441E0;8.316853523E0;9.748406920E0
2.922548585E0;-4.666004181E-1;5.072185993E0;8.312067986E0;9.748603023E0
2.924692343E0;-4.618147612E-1;5.062614441E0;8.292924881E0;9.727072578E0
2.926858135E0;-4.474578202E-1;5.067399979E0;8.302495956E0;9.737052950E0
2.929008241E0;-4.378865361E-1;5.081757069E0;8.297710419E0;9.740020417E0
2.931174225E0;-4.091726840E-1;5.091328144E0;8.288139343E0;9.735620079E0
2.933353771E0;-3.804588020E-1;5.105685234E0;8.273782730E0;9.729761111E0
2.935542014E0;-3.708875179E-1;5.105685234E0;8.292924881E0;9.745675058E0
2.937714520E0;-3.613162339E-1;5.100899696E0;8.321639061E0;9.767261837E0
2.939888510E0;-3.230310678E-1;5.120042324E0;8.326424599E0;9.780006599E0
2.942059501E0;-3.086741269E-1;5.115256786E0;8.355138779E0;9.801503748E0
2.944232311E0;-3.086741269E-1;5.110470772E0;8.388637543E0;9.827585209E0
2.946398918E0;-3.230310678E-1;5.115256786E0;8.402995110E0;9.842790655E0
2.948559674E0;-2.991028428E-1;5.100899696E0;8.402995110E0;9.834580166E0
2.950740206E0;-2.895315289E-1;5.100899696E0;8.417351723E0;9.846563677E0
2.952903017E0;-3.038884699E-1;5.076971531E0;8.412566185E0;9.830526840E0
2.955080528E0;-3.038884699E-1;5.081757069E0;8.422137260E0;9.841188909E0
2.957241670E0;-2.943171859E-1;5.076971531E0;8.436494827E0;9.850721167E0
2.959427807E0;-3.038884699E-1;5.081757069E0;8.441280365E0;9.857576645E0
2.961597608E0;-2.943171859E-1;5.053043365E0;8.446065903E0;9.846618663E0
2.963771873E0;-3.086741269E-1;5.076971531E0;8.469993591E0;9.879863920E0
2.965936597E0;-3.182454109E-1;5.057828903E0;8.498707771E0;9.894996066E0
2.968102592E0;-3.182454109E-1;5.062614441E0;8.532207489E0;9.926223338E0
2.970280692E0;-3.373879790E-1;5.038686275E0;8.541778564E0;9.922911421E0
2.972451978E0;-3.373879790E-1;5.019543648E0;8.551349640E0;9.921453006E0
2.974623690E0;-3.326023519E-1;5.023731232E0;8.575278282E0;9.944038286E0
2.976793287E0;-3.373879790E-1;5.009972572E0;8.565707207E0;9.928997723E0
2.978965610E0;-3.565305769E-1;5.004588604E0;8.566305161E0;9.927467212E0
2.981134747E0;-3.517449200E-1;5.009374142E0;8.580063820E0;9.941581812E0
2.983304466E0;-3.613162339E-1;5.014159679E0;8.551349640E0;9.919572943E0
2.985475029E0;-3.661018610E-1;5.023731232E0;8.546564102E0;9.920466925E0
2.987652500E0;-3.661018610E-1;5.014159679E0;8.556135178E0;9.923874094E0
2.989845930E0;-3.708875179E-1;5.028516769E0;8.556135178E0;9.931313490E0
2.991990024E0;-3.565305769E-1;5.004588604E0;8.556734085E0;9.919209613E0
2.994160505E0;-3.708875179E-1;4.999803066E0;8.575876236E0;9.933843237E0
2.996329420E0;-3.661018610E-1;5.000401020E0;8.556135178E0;9.916929470E0
2.998526351E0;-3.804588020E-1;5.014758110E0;8.551349640E0;9.920591135E0
3.000688785E0;-3.655036688E-1;4.986044407E0;8.537590981E0;9.893669264E0
3.002846163E0;-3.894318938E-1;5.000401020E0;8.523234367E0;9.889448500E0
3.005009454E0;-3.942175210E-1;4.995615482E0;8.518448830E0;9.883094251E0
3.007181909E0;-4.085744619E-1;5.000401020E0;8.489734650E0;9.861365923E0
3.009349745E0;-4.229314029E-1;4.995615482E0;8.484949112E0;9.855425229E0
3.011495466E0;-4.378865361E-1;5.033900738E0;8.450851440E0;9.846257732E0
3.013671848E0;-5.335994363E-1;5.129015446E0;8.498109818E0;9.940291659E0
3.015845900E0;-4.612165689E-1;5.018945694E0;8.489136696E0;9.872587221E0
3.018032800E0;-4.085744619E-1;4.914259434E0;8.394619942E0;9.735837038E0
3.020198947E0;-3.750749528E-1;4.885545731E0;8.351549149E0;9.682851413E0
3.022356774E0;-3.798605800E-1;4.885545731E0;8.332406998E0;9.666532859E0
3.024541466E0;-3.894318938E-1;4.952544689E0;8.370093346E0;9.733335436E0
3.026711969E0;-4.283152521E-1;5.000401020E0;8.389236450E0;9.775824903E0
3.028887191E0;-4.187439680E-1;5.048257351E0;8.388637543E0;9.799463690E0
3.031054162E0;-3.948157430E-1;5.076971531E0;8.388637543E0;9.813295024E0
3.033222222E0;-3.756731451E-1;5.072185993E0;8.412566185E0;9.830537670E0
3.035376641E0;-3.326023519E-1;5.038686275E0;8.384450912E0;9.787645315E0
3.037543714E0;-3.086741269E-1;5.014758110E0;8.360522270E0;9.754045891E0
3.039710786E0;-3.134597540E-1;5.024329185E0;8.341380119E0;9.742728728E0
3.041877859E0;-3.182454109E-1;5.038686275E0;8.274380684E0;9.693039525E0
3.044044932E0;-3.134597540E-1;5.096114159E0;8.245068550E0;9.697927198E0
3.046212005E0;-3.134597540E-1;5.110470772E0;8.240283012E0;9.701413951E0
3.048379078E0;-2.847459018E-1;5.139184952E0;8.225926399E0;9.703513143E0
3.050546150E0;-2.656033039E-1;5.143970490E0;8.225926399E0;9.705505790E0
3.052745823E0;-2.416750938E-1;5.163711071E0;8.211568832E0;9.703204706E0
3.054935928E0;-2.129612118E-1;5.163711071E0;8.221140862E0;9.710634458E0
3.057102127E0;-2.087737769E-1;5.173282623E0;8.211568832E0;9.707538425E0
3.059263096E0;-2.129612118E-1;5.168497086E0;8.216354370E0;9.709129402E0
3.061430384E0;-2.039881349E-1;5.178068161E0;8.216354370E0;9.714035216E0
3.063607344E0;-1.800599098E-1;5.197210789E0;8.206783295E0;9.715694190E0
3.065790623E0;-1.752742529E-1;5.206781864E0;8.206783295E0;9.720729936E0
3.067955358E0;-1.513460279E-1;5.225924492E0;8.201997757E0;9.726559496E0
3.070133763E0;-1.657029688E-1;5.230710506E0;8.173283577E0;9.705171524E0
3.072302119E0;-1.609173268E-1;5.264209747E0;8.167900085E0;9.718661968E0
3.074473943E0;-1.800599098E-1;5.264209747E0;8.158329010E0;9.710955569E0
3.076642888E0;-1.704886109E-1;5.264209747E0;8.153543472E0;9.706762683E0
3.078813990E0;-1.896311939E-1;5.268995285E0;8.187042236E0;9.737860745E0
3.080984939E0;-1.848455518E-1;5.264209747E0;8.191828728E0;9.739205822E0
3.083156011E0;-1.944168359E-1;5.278566837E0;8.210970879E0;9.763252969E0
3.085327591E0;-1.848455518E-1;5.264209747E0;8.206185341E0;9.751284530E0
3.087495265E0;-2.087737769E-1;5.277968407E0;8.220541954E0;9.771276632E0
3.089659388E0;-1.800599098E-1;5.297111034E0;8.234899521E0;9.793129071E0
3.091839533E0;-1.992024779E-1;5.325825214E0;8.234899521E0;9.809060402E0
3.094010269E0;-1.944168359E-1;5.316253662E0;8.277970314E0;9.839976800E0
3.096185471E0;-1.896311939E-1;5.325825214E0;8.291728973E0;9.856629422E0
3.098357478E0;-2.039881349E-1;5.321039200E0;8.306085587E0;9.866414095E0
3.100512924E0;-2.135594189E-1;5.316253662E0;8.358727455E0;9.908404781E0
3.102693812E0;-2.231307179E-1;5.297111034E0;8.368298531E0;9.906441991E0
3.104863317E0;-2.374876440E-1;5.287539959E0;8.401798248E0;9.929989577E0
3.107039323E0;-2.566302419E-1;5.277968407E0;8.435297966E0;9.953746097E0
3.109210292E0;-2.518445849E-1;5.282754421E0;8.473583221E0;9.988620154E0
3.111391271E0;-2.560320199E-1;5.268397331E0;8.492725372E0;9.997397015E0
3.113551204E0;-2.560320199E-1;5.273182869E0;8.507082939E0;1.001211616E1
3.115733882E0;-2.703889608E-1;5.272584915E0;8.531010628E0;1.003251734E1
3.117901933E0;-2.751746178E-1;5.258227825E0;8.554939270E0;1.004547992E1
3.120071203E0;-2.703889608E-1;5.253442287E0;8.578866959E0;1.006323628E1
3.122222286E0;-2.608176768E-1;5.248656273E0;8.583653450E0;1.006456780E1
3.124417029E0;-2.703889608E-1;5.253442287E0;8.602795601E0;1.008364310E1
3.126582282E0;-2.751746178E-1;5.272584915E0;8.598010063E0;1.008968036E1
3.128749264E0;-2.560320199E-1;5.263013363E0;8.617152214E0;1.010050367E1
3.130927069E0;-2.608176768E-1;5.253442287E0;8.602795601E0;1.008339099E1
3.133099463E0;-2.703889608E-1;5.243870735E0;8.598010063E0;1.007457530E1
3.135274644E0;-2.943171859E-1;5.219942570E0;8.593224525E0;1.005872411E1
3.137442145E0;-2.799602449E-1;5.200799942E0;8.584251404E0;1.004072059E1
3.139611120E0;-2.895315289E-1;5.191228867E0;8.589036942E0;1.004013153E1
3.141779415E0;-2.656033039E-1;5.191826820E0;8.579465866E0;1.003159237E1
3.143936245E0;-2.560320199E-1;5.182255745E0;8.579465866E0;1.002639325E1
3.146110928E0;-2.464607358E-1;5.191826820E0;8.579465866E0;1.003110379E1
3.148294624E0;-2.512463629E-1;5.187041283E0;8.598608017E0;1.004512727E1
3.150469682E0;-2.273181528E-1;5.191826820E0;8.579465866E0;1.003065171E1
3.152643582E0;-2.321037948E-1;5.182255745E0;8.569893837E0;1.001762083E1
3.154818295E0;-2.368894368E-1;5.201398373E0;8.555537224E0;1.001538211E1
3.156976163E0;-2.464607358E-1;5.167898655E0;8.545966148E0;9.990067908E0
3.159151313E0;-2.416750938E-1;5.167898655E0;8.531609535E0;9.977672305E0
3.161317512E0;-2.273181528E-1;5.143970490E0;8.507680893E0;9.944482898E0
3.163492754E0;-2.416750938E-1;5.134399414E0;8.517850876E0;9.948580187E0
3.165655881E0;-2.273181528E-1;5.143970490E0;8.502895355E0;9.940389095E0
3.167810840E0;-2.273181528E-1;5.143970490E0;8.498707771E0;9.936807320E0
3.170004310E0;-2.273181528E-1;5.120042324E0;8.460422516E0;9.891676101E0
3.172174517E0;-2.321037948E-1;5.143970490E0;8.436494827E0;9.883761912E0
3.174349271E0;-2.368894368E-1;5.100899696E0;8.426922798E0;9.853340660E0
3.176509519E0;-2.368894368E-1;5.115256786E0;8.407780647E0;9.844427053E0
3.178663257E0;-2.321037948E-1;5.100899696E0;8.407780647E0;9.836860541E0
3.180859555E0;-2.368894368E-1;5.096114159E0;8.364709854E0;9.797697029E0
3.183029284E0;-2.368894368E-1;5.081757069E0;8.340781212E0;9.769800547E0
3.185206103E0;-2.703889608E-1;5.067399979E0;8.335995674E0;9.759122738E0
3.187372312E0;-2.799602449E-1;5.029115200E0;8.341380119E0;9.744177735E0
3.189548530E0;-2.560320199E-1;5.029115200E0;8.360522270E0;9.759912127E0
3.191713681E0;-2.512463629E-1;5.029115200E0;8.370093346E0;9.767987871E0
3.193884814E0;-2.608176768E-1;5.033900738E0;8.379665375E0;9.778904555E0
3.196052997E0;-2.560320199E-1;5.014758110E0;8.379665375E0;9.768937664E0
3.198220609E0;-2.560320199E-1;5.009972572E0;8.374878883E0;9.762375422E0
3.200377540E0;-2.512463629E-1;5.009972572E0;8.370093346E0;9.758145957E0
3.202564288E0;-2.703889608E-1;5.000401020E0;8.379665375E0;9.761962525E0
3.204730009E0;-2.608176768E-1;4.996213913E0;8.379665375E0;9.759557937E0
3.206935341E0;-2.799602449E-1;4.977071285E0;8.355736732E0;9.729745765E0
3.209064655E0;-2.895315289E-1;4.972285271E0;8.360522270E0;9.731689573E0
3.211244667E0;-2.991028428E-1;4.976472855E0;8.360522270E0;9.734119232E0
3.213417285E0;-2.943171859E-1;4.962714195E0;8.365307808E0;9.731060040E0
3.215596251E0;-2.991028428E-1;4.967499733E0;8.355736732E0;9.725422996E0
3.217766936E0;-3.182454109E-1;4.977071285E0;8.317451477E0;9.698067735E0
3.219927336E0;-3.421736360E-1;4.971687317E0;8.327022552E0;9.704332134E0
3.222079995E0;-3.565305769E-1;4.938786030E0;8.313263893E0;9.676211968E0
3.224250670E0;-3.469592929E-1;4.943571568E0;8.307880402E0;9.673683753E0
3.226421233E0;-3.182454109E-1;4.938786030E0;8.270193100E0;9.637893001E0
3.228597431E0;-3.326023519E-1;4.957928658E0;8.260622025E0;9.639997776E0
3.230767322E0;-2.991028428E-1;4.957928658E0;8.222336769E0;9.606109568E0
3.232938607E0;-2.991028428E-1;4.996213913E0;8.226524353E0;9.629502526E0
3.235109231E0;-2.895315289E-1;4.991427898E0;8.212167740E0;9.614462021E0
3.237280364E0;-2.703889608E-1;5.010570526E0;8.216953278E0;9.627941024E0
3.239451781E0;-2.560320199E-1;5.005784988E0;8.202595711E0;9.612804593E0
3.241623208E0;-2.368894368E-1;5.000999451E0;8.193024635E0;9.601654273E0
3.243793273E0;-2.416750938E-1;4.981856823E0;8.160123825E0;9.563729665E0
3.245965687E0;-2.321037948E-1;4.991427898E0;8.140980721E0;9.552161626E0
3.248134917E0;-2.177468538E-1;4.986642361E0;8.121838570E0;9.533009886E0
3.250306029E0;-2.177468538E-1;4.981856823E0;8.112266541E0;9.522351575E0
3.252478505E0;-2.081755698E-1;4.991427898E0;8.112266541E0;9.527148469E0
3.254656045E0;-2.129612118E-1;4.996213913E0;8.102695465E0;9.521616446E0
3.256821482E0;-2.321037948E-1;4.996213913E0;8.097909927E0;9.517991954E0
3.258999390E0;-2.273181528E-1;5.020142078E0;8.088338852E0;9.522327731E0
3.261160013E0;-2.273181528E-1;5.000999451E0;8.059624672E0;9.487845851E0
3.263339405E0;-2.368894368E-1;5.005784988E0;8.030911446E0;9.466231489E0
3.265499297E0;-2.464607358E-1;5.005784988E0;8.021339417E0;9.458356743E0
3.267673177E0;-2.464607358E-1;5.015356064E0;8.016553879E0;9.459369716E0
3.269843383E0;-2.751746178E-1;5.015356064E0;8.011768341E0;9.456106465E0
3.272017466E0;-2.608176768E-1;5.010570526E0;8.011768341E0;9.453162159E0
3.274199290E0;-2.608176768E-1;5.015356064E0;8.026124954E0;9.467866924E0
3.276368327E0;-2.799602449E-1;5.029713154E0;8.026124954E0;9.476026273E0
3.278530325E0;-2.751746178E-1;5.039284706E0;8.030312538E0;9.484515321E0
3.280709462E0;-2.799602449E-1;5.029713154E0;8.002197266E0;9.455768252E0
3.282878815E0;-2.799602449E-1;5.058426857E0;8.001599312E0;9.470567647E0
3.285052725E0;-2.895315289E-1;5.072783947E0;7.992027760E0;9.470452639E0
3.287219615E0;-2.751746178E-1;5.082355499E0;7.992027760E0;9.475155207E0
3.289387430E0;-2.512463629E-1;5.082355499E0;7.992027760E0;9.474490481E0
3.291563843E0;-2.608176768E-1;5.101497650E0;7.977670670E0;9.472936897E0
3.293734904E0;-2.512463629E-1;5.125426292E0;7.992027760E0;9.497664298E0
3.295906230E0;-2.560320199E-1;5.115854740E0;7.977670670E0;9.480545946E0
3.298074911E0;-2.327020019E-1;5.125426292E0;7.934599876E0;9.448916345E0
3.300239360E0;-2.327020019E-1;5.134997368E0;7.934599876E0;9.454111454E0
3.302416250E0;-2.183450609E-1;5.139782906E0;7.905886173E0;9.432289174E0
3.304588298E0;-2.183450609E-1;5.134997368E0;7.905886173E0;9.429682323E0
3.306760987E0;-1.992024779E-1;5.140381336E0;7.881958008E0;9.412144492E0
3.308934683E0;-1.896311939E-1;5.154737949E0;7.891529083E0;9.427805396E0
3.311116791E0;-1.657029688E-1;5.164309502E0;7.891529083E0;9.432591445E0
3.313272584E0;-1.657029688E-1;5.188237667E0;7.881958008E0;9.437718453E0
3.315444052E0;-1.417747438E-1;5.178666592E0;7.872386456E0;9.424073230E0
3.317610057E0;-1.322034448E-1;5.164309502E0;7.872386456E0;9.416052192E0
3.319787161E0;-1.178465188E-1;5.164309502E0;7.858029366E0;9.403861225E0
3.321965302E0;-1.226321608E-1;5.154737949E0;7.862815380E0;9.402671305E0
3.324127219E0;-1.178465188E-1;5.164309502E0;7.848458290E0;9.395864940E0
3.326298148E0;-1.178465188E-1;5.159523964E0;7.843672752E0;9.389237327E0
3.328467073E0;-1.322034448E-1;5.169095039E0;7.853243828E0;9.402683654E0
3.330639721E0;-1.178465188E-1;5.154737949E0;7.843672752E0;9.386608193E0
3.332811697E0;-1.226321608E-1;5.140381336E0;7.814958572E0;9.354792163E0
3.334980999E0;-1.130608693E-1;5.140381336E0;7.824530125E0;9.362669209E0
3.337151959E0;-1.322034448E-1;5.126024246E0;7.800601959E0;9.335041149E0
3.339322531E0;-1.561316848E-1;5.111667156E0;7.829914093E0;9.352062496E0
3.341493867E0;-1.465603858E-1;5.111667156E0;7.825128078E0;9.347900861E0
3.343665417E0;-1.657029688E-1;5.102096081E0;7.820342541E0;9.338982779E0
3.345838065E0;-1.657029688E-1;5.097310543E0;7.829914093E0;9.344387992E0
3.348007112E0;-1.752742529E-1;5.097310543E0;7.853842258E0;9.364621405E0
3.350178813E0;-1.752742529E-1;5.106881618E0;7.839485168E0;9.357803622E0
3.352350821E0;-1.609173268E-1;5.102096081E0;7.853842258E0;9.366969469E0
3.354532696E0;-1.609173268E-1;5.092525005E0;7.844270706E0;9.353731246E0
3.356698936E0;-1.609173268E-1;5.106881618E0;7.825128078E0;9.345521050E0
3.358875725E0;-1.609173268E-1;5.135595798E0;7.819744587E0;9.356743237E0
3.361041790E0;-1.657029688E-1;5.116453171E0;7.834101200E0;9.358348793E0
3.363215109E0;-1.704886109E-1;5.121238708E0;7.810173035E0;9.341036083E0
3.365381909E0;-1.417747438E-1;5.126024246E0;7.810173035E0;9.343180801E0
3.367549553E0;-1.417747438E-1;5.126024246E0;7.795815945E0;9.331182717E0
3.369728548E0;-1.417747438E-1;5.145166874E0;7.795815945E0;9.341712289E0
3.371899416E0;-1.322034448E-1;5.154737949E0;7.771887779E0;9.326898773E0
3.374070875E0;-1.322034448E-1;5.135595798E0;7.781459332E0;9.324319347E0
3.376234500E0;-1.274178028E-1;5.145166874E0;7.762316704E0;9.313567419E0
3.378390506E0;-1.178465188E-1;5.159523964E0;7.757531166E0;9.317395834E0
3.380583061E0;-1.178465188E-1;5.178666592E0;7.747959614E0;9.320051161E0
3.382753074E0;-1.178465188E-1;5.169095039E0;7.747959614E0;9.314736148E0
3.384929873E0;-1.034895778E-1;5.193023205E0;7.743174076E0;9.323891080E0
3.387091169E0;-9.870393574E-2;5.193023205E0;7.762316704E0;9.339742667E0
3.389253420E0;-1.034895778E-1;5.183452129E0;7.762316704E0;9.334476240E0
3.391436617E0;-1.178465188E-1;5.193023205E0;7.757531166E0;9.335987768E0
3.393607160E0;-1.130608693E-1;5.193023205E0;7.767102242E0;9.343883026E0
3.395781436E0;-1.226321608E-1;5.202594757E0;7.767102242E0;9.349326611E0
3.397946872E0;-1.226321608E-1;5.188237667E0;7.800601959E0;9.369217665E0
3.400107770E0;-1.226321608E-1;5.202594757E0;7.800601959E0;9.377175576E0
3.402293369E0;-1.274178028E-1;5.221737385E0;7.800601959E0;9.387873430E0
3.404461714E0;-1.034895778E-1;5.216951370E0;7.795815945E0;9.380940141E0
3.406630018E0;-1.226321608E-1;5.245665550E0;7.809575081E0;9.408586964E0
3.408777398E0;-1.226321608E-1;5.240880013E0;7.819146156E0;9.413867886E0
3.410983442E0;-1.226321608E-1;5.240880013E0;7.809575081E0;9.405919673E0
3.413146986E0;-1.226321608E-1;5.250451088E0;7.804789066E0;9.407284818E0
3.415325463E0;-1.274178028E-1;5.260022163E0;7.809575081E0;9.416662434E0
3.417485752E0;-1.226321608E-1;5.274379253E0;7.819146156E0;9.432558601E0
3.419655418E0;-1.369891018E-1;5.269593716E0;7.823931694E0;9.434049560E0
3.421814375E0;-1.369891018E-1;5.283950806E0;7.814360619E0;9.434147233E0
3.423999026E0;-1.513460279E-1;5.312066078E0;7.809575081E0;9.446185187E0
3.426168664E0;-1.561316848E-1;5.326423168E0;7.838288784E0;9.478076383E0
3.428343856E0;-1.896311939E-1;5.331208706E0;7.847859859E0;9.489291366E0
3.430519188E0;-1.752742529E-1;5.350351334E0;7.856832981E0;9.507197534E0
3.432703494E0;-1.944168359E-1;5.350351334E0;7.852047443E0;9.503615436E0
3.434842919E0;-1.944168359E-1;5.369493961E0;7.856832981E0;9.518355310E0
3.437026819E0;-2.039881349E-1;5.398207664E0;7.875975609E0;9.550562755E0
3.439190617E0;-2.183450609E-1;5.398207664E0;7.875975609E0;9.550880187E0
3.441367130E0;-2.183450609E-1;5.402993679E0;7.866404533E0;9.545697227E0
3.443521885E0;-2.135594189E-1;5.412564754E0;7.875975609E0;9.558894112E0
3.445696283E0;-1.992024779E-1;5.422136307E0;7.871190071E0;9.560066783E0
3.447881475E0;-2.087737769E-1;5.455635548E0;7.884948730E0;9.590618447E0
3.450055657E0;-2.039881349E-1;5.465207100E0;7.894520283E0;9.603829981E0
3.452225691E0;-1.950150430E-1;5.489135265E0;7.904091358E0;9.625138806E0
3.454393874E0;-1.806581169E-1;5.498706341E0;7.913662910E0;9.638177703E0
3.456560521E0;-1.615155339E-1;5.522634506E0;7.937591076E0;9.671139087E0
3.458735753E0;-1.615155339E-1;5.541777134E0;7.960920811E0;9.701218543E0
3.460905196E0;-1.519442350E-1;5.551348686E0;7.941778183E0;9.690841036E0
3.463077356E0;-1.280160099E-1;5.556134224E0;7.936992645E0;9.689317203E0
3.465242080E0;-1.232303679E-1;5.589633465E0;7.960920811E0;9.728075254E0
3.467398920E0;-1.088734269E-1;5.589633465E0;7.941778183E0;9.712244663E0
3.469590407E0;-8.973085135E-2;5.618347645E0;7.956135273E0;9.740327015E0
3.471762059E0;-8.973085135E-2;5.627918720E0;7.965706348E0;9.753665894E0
3.473935775E0;-8.494520187E-2;5.637490273E0;7.965706348E0;9.759149035E0
3.476099278E0;-7.537391037E-2;5.656632900E0;7.951349735E0;9.758439404E0
3.478260157E0;-1.040877849E-1;5.651846886E0;7.965706348E0;9.767634571E0
3.480430994E0;-7.537391037E-2;5.651846886E0;7.965706348E0;9.767370786E0
3.482615188E0;-8.015955985E-2;5.656632900E0;7.979465485E0;9.781400245E0
3.484786738E0;-1.040877849E-1;5.675177097E0;7.993822098E0;9.804063499E0
3.486941920E0;-1.088734269E-1;5.679962635E0;7.984251022E0;9.799086353E0
3.489101345E0;-1.136590764E-1;5.694319725E0;7.998608112E0;9.819161230E0
3.491270777E0;-1.184447184E-1;5.708676815E0;8.008178711E0;9.835341702E0
3.493445877E0;-1.232303679E-1;5.713462353E0;7.993822098E0;9.826496299E0
3.495618322E0;-1.519442350E-1;5.713462353E0;8.008178711E0;9.838580455E0
3.497789750E0;-1.519442350E-1;5.723033428E0;8.017750740E0;9.851930044E0
3.499964248E0;-1.615155339E-1;5.732604980E0;8.027321815E0;9.865431702E0
3.502145197E0;-1.806581169E-1;5.746961594E0;8.041080475E0;9.885301215E0
3.504314763E0;-1.710868180E-1;5.746961594E0;8.074580193E0;9.912400494E0
3.506485703E0;-1.567298770E-1;5.737390518E0;8.103293419E0;9.930034161E0
3.508651862E0;-1.950150430E-1;5.766104221E0;8.117650986E0;9.959028381E0
3.510822576E0;-2.093719840E-1;5.799005508E0;8.160721779E0;1.001347499E1
3.512986771E0;-2.045863420E-1;5.770291805E0;8.170292854E0;1.000458937E1
3.515167720E0;-1.806581169E-1;5.770890236E0;8.151150703E0;9.988847244E0
3.517338090E0;-1.615155339E-1;5.737390518E0;8.141578674E0;9.961377442E0
3.519509059E0;-1.758724600E-1;5.737390518E0;8.146365166E0;9.965532926E0
3.521666795E0;-1.950150430E-1;5.760720730E0;8.203792572E0;1.002627282E1
3.523839026E0;-2.045863420E-1;5.765506268E0;8.208578110E0;1.003312876E1
3.526008937E0;-2.093719840E-1;5.779862881E0;8.218149185E0;1.004930981E1
3.528180782E0;-2.093719840E-1;5.799005508E0;8.265407562E0;1.009897340E1
3.530347906E0;-1.854437590E-1;5.789434433E0;8.241478920E0;1.007342619E1
3.532523657E0;-1.902294010E-1;5.775077343E0;8.261219978E0;1.008144142E1
3.534695156E0;-1.950150430E-1;5.789434433E0;8.270193100E0;1.009711225E1
3.536870551E0;-2.045863420E-1;5.775077343E0;8.266005516E0;1.008564431E1
3.539043565E0;-1.998006850E-1;5.794219971E0;8.274978638E0;1.010386940E1
3.541209112E0;-2.189432681E-1;5.784648895E0;8.294121742E0;1.011447253E1
3.543378648E0;-2.237289101E-1;5.794219971E0;8.303692818E0;1.012789979E1
3.545548092E0;-1.998006850E-1;5.794219971E0;8.313263893E0;1.013524849E1
3.547720832E0;-1.950150430E-1;5.794219971E0;8.332406998E0;1.015086313E1
3.549891475E0;-1.950150430E-1;5.765506268E0;8.341978073E0;1.014237110E1
3.552064358E0;-1.902294010E-1;5.760720730E0;8.361120224E0;1.015531496E1
3.554236081E0;-1.998006850E-1;5.755934715E0;8.371290207E0;1.016116157E1
3.556404365E0;-1.998006850E-1;5.760720730E0;8.404191017E0;1.019098868E1
3.558577705E0;-2.237289101E-1;5.775077343E0;8.437690735E0;1.022722826E1
3.560746070E0;-2.237289101E-1;5.760720730E0;8.452047348E0;1.023098540E1
3.562917334E0;-2.333002090E-1;5.765506268E0;8.475975990E0;1.025366571E1
3.565087857E0;-2.285145670E-1;5.770291805E0;8.490332603E0;1.026811736E1
3.567258064E0;-2.237289101E-1;5.784050465E0;8.514261246E0;1.029553005E1
3.569430121E0;-2.285145670E-1;5.788836002E0;8.538188934E0;1.031811569E1
3.571601620E0;-2.141576260E-1;5.788836002E0;8.566903114E0;1.034158183E1
3.573772356E0;-2.045863420E-1;5.788836002E0;8.581260681E0;1.035328512E1
3.575943560E0;-1.998006850E-1;5.784050465E0;8.633902550E0;1.039420191E1
3.578112425E0;-1.902294010E-1;5.788836002E0;8.667402267E0;1.042452261E1
3.580283728E0;-1.806581169E-1;5.760122299E0;8.672187805E0;1.041241987E1
3.582455309E0;-1.806581169E-1;5.750551224E0;8.729615211E0;1.045503030E1
3.584626696E0;-1.710868180E-1;5.745765209E0;8.782257080E0;1.049624352E1
3.586797554E0;-1.663011760E-1;5.764907837E0;8.805587769E0;1.052616713E1
3.588968697E0;-1.950150430E-1;5.774479389E0;8.834300995E0;1.055592332E1
3.591139717E0;-2.237289101E-1;5.736194134E0;8.853444099E0;1.055165628E1
3.593311205E0;-2.327020019E-1;5.717051506E0;8.887541771E0;1.057011007E1
3.595480670E0;-2.327020019E-1;5.688337803E0;8.925827026E0;1.058686570E1
3.597653369E0;-2.135594189E-1;5.673980713E0;8.959325790E0;1.060703462E1
3.599828610E0;-2.087737769E-1;5.659623623E0;8.988039970E0;1.062354877E1
3.601994179E0;-1.896311939E-1;5.669195175E0;9.016754150E0;1.065258604E1
3.604165312E0;-1.752742529E-1;5.688337803E0;9.050253868E0;1.069088411E1
3.606336128E0;-1.848455518E-1;5.692524910E0;9.059226990E0;1.070086919E1
3.608507668E0;-1.896311939E-1;5.721239090E0;9.102297783E0;1.075269090E1
3.610677538E0;-2.087737769E-1;5.702096462E0;9.116654396E0;1.075503965E1
3.612847847E0;-2.039881349E-1;5.702096462E0;9.116654396E0;1.075494782E1
3.615019030E0;-2.135594189E-1;5.687739372E0;9.126225471E0;1.075564866E1
3.617189583E0;-2.470589429E-1;5.668596745E0;9.126225471E0;1.074625602E1
